Tiempo,AccX,AccY,AccZ,GyrX,GyrY,GyrZ,MagX,MagY,MagZ
0.0,272,-310,-8304,26,-84,-16,71,36,-300
0.012000000000000455,350,-218,-7944,8,-29,-11,73,41,-295
0.03400000000000247,394,-260,-8124,-13,13,-10,75,32,-289
0.05600000000000094,386,-290,-8144,-10,-2,-7,70,40,-306
0.06800000000000139,376,-282,-8050,-9,-2,-5,59,36,-300
0.08999999999999986,354,-302,-8118,-18,15,-3,71,34,-302
0.10200000000000031,298,-226,-8094,-21,12,-6,78,36,-302
0.12400000000000233,274,-266,-8114,-23,18,-6,81,34,-302
0.13600000000000279,334,-308,-8154,-10,3,-6,78,41,-297
0.15800000000000125,354,-264,-8154,-9,-3,-8,67,37,-298
0.17999999999999972,328,-318,-8106,-10,-1,-6,73,44,-304
0.19200000000000017,348,-292,-8156,-8,-5,-4,75,45,-303
0.2140000000000022,354,-328,-8152,-13,1,-6,71,46,-300
0.22600000000000264,338,-278,-8130,-11,10,-12,72,37,-291
0.2480000000000011,306,-314,-8092,-19,7,-10,79,37,-298
0.26000000000000156,348,-294,-8122,-12,3,-3,64,44,-295
0.28200000000000003,316,-258,-8130,-16,8,-9,77,40,-291
0.2940000000000005,350,-304,-8170,-11,3,-14,83,39,-304
0.3160000000000025,358,-324,-8094,-10,-1,-9,70,35,-308
0.33800000000000097,328,-274,-8094,-13,-4,-7,67,35,-306
0.3500000000000014,314,-308,-8104,-13,1,-10,65,43,-296
0.3719999999999999,330,-270,-8104,-11,4,-8,64,44,-307
0.38400000000000034,350,-278,-8106,-9,2,-6,71,31,-309
0.40600000000000236,324,-254,-8094,-14,6,-10,73,31,-295
0.4280000000000008,294,-284,-8146,-13,5,-8,88,34,-307
0.4400000000000013,276,-346,-8112,-13,6,-6,75,32,-303
0.46199999999999974,284,-270,-8078,-15,5,-5,73,29,-304
0.4740000000000002,320,-246,-8134,-14,0,-9,71,36,-302
0.4960000000000022,310,-318,-8130,-13,-2,-11,77,40,-294
0.5080000000000027,332,-318,-8110,-11,2,-8,76,34,-297
0.5300000000000011,288,-360,-8160,-15,4,-6,79,32,-306
0.5420000000000016,324,-266,-8132,-17,4,-10,67,20,-294
0.5640000000000001,306,-268,-8074,-14,3,-7,70,40,-298
0.5860000000000021,308,-292,-8104,-9,3,-8,64,39,-302
0.5980000000000025,314,-284,-8138,-8,1,-13,81,39,-304
0.620000000000001,330,-352,-8098,-9,8,-11,69,24,-304
0.6320000000000014,350,-270,-8096,-8,4,-8,71,36,-297
0.6539999999999999,354,-234,-8130,-8,9,-10,66,44,-300
0.6660000000000004,344,-306,-8150,-10,5,-13,72,37,-296
0.6880000000000024,360,-256,-8082,-15,0,-8,81,31,-302
0.6999999999999993,328,-260,-8144,-12,4,-7,76,41,-300
0.7220000000000013,340,-296,-8144,-16,2,-9,71,36,-297
0.7439999999999998,342,-324,-8116,-12,-1,-8,69,34,-307
0.7560000000000002,320,-276,-8116,-11,0,-7,70,30,-301
0.7829980000000027,322,-270,-8092,-11,8,-9,75,45,-303
0.7950000000000017,304,-292,-8116,-10,1,-3,77,35,-303
0.8070000000000022,296,-300,-8134,-12,3,-10,73,39,-300
0.8290000000000006,318,-302,-8120,-9,5,-11,83,39,-295
0.8410000000000011,326,-296,-8142,-11,-2,-7,65,32,-289
0.8629999999999995,338,-304,-8122,-11,5,-10,75,35,-291
0.8850000000000016,308,-306,-8122,-11,6,-7,67,37,-294
0.897000000000002,324,-286,-8122,-12,4,-7,76,41,-290
0.9190000000000005,290,-294,-8130,-13,4,-10,70,30,-291
0.9310000000000009,326,-284,-8136,-12,1,-6,66,29,-300
0.9529999999999994,272,-348,-8106,-15,0,-10,79,40,-303
0.9649999999999999,300,-296,-8122,-14,0,-9,79,35,-289
0.9870000000000019,308,-250,-8136,-17,6,-10,66,36,-292
1.0090000000000003,336,-264,-8104,-13,8,-7,72,43,-296
1.0210000000000008,294,-316,-8132,-10,7,-9,60,35,-296
1.0429999999999993,334,-246,-8126,-12,7,-12,72,45,-303
1.0549999999999997,306,-292,-8142,-10,-4,-10,71,41,-307
1.0770000000000017,316,-262,-8162,-10,0,-12,79,35,-296
1.0890000000000022,290,-244,-8100,-10,5,-9,67,30,-298
1.1110000000000007,344,-306,-8118,-11,1,-10,76,39,-288
1.1330000000000027,316,-332,-8152,-14,5,-6,79,32,-294
1.1449999999999996,358,-246,-8128,-11,3,-10,73,34,-300
1.1670000000000016,388,-322,-8182,-27,-11,-6,70,32,-298
1.179000000000002,250,-286,-8148,-43,58,-12,73,39,-300
1.2010000000000005,308,-312,-8140,-13,19,-7,72,32,-298
1.213000000000001,390,-252,-8086,-11,-1,-10,75,25,-298
1.2349999999999994,298,-270,-8108,-16,8,-7,67,40,-303
1.2469999999999999,310,-260,-8058,-14,7,-11,79,25,-298
1.269000000000002,322,-294,-8116,-15,9,-6,72,35,-308
1.2910000000000004,270,-296,-8100,-14,6,-6,71,39,-309
1.3030000000000008,306,-324,-8154,-13,1,-4,65,32,-301
1.3249999999999993,318,-240,-8134,-11,1,-5,70,43,-296
1.3369999999999997,340,-316,-8124,-13,1,-8,72,40,-301
1.3590000000000018,330,-248,-8122,-16,3,-9,75,40,-303
1.3710000000000022,298,-274,-8032,-6,11,-15,71,36,-292
1.3930000000000007,-372,-200,-8578,-91,324,-26,75,43,-308
1.4150000000000027,-1956,-126,-8786,-22,203,518,69,29,-302
1.4269999999999996,-812,-668,-7674,58,-49,842,64,31,-304
1.4490000000000016,1370,-328,-5408,-35,-185,969,64,36,-302
1.461000000000002,3032,286,-7470,-75,-34,551,60,37,-298
1.4830000000000005,1298,-520,-7558,-24,-374,149,72,45,-303
1.495000000000001,-128,-334,-7794,-82,237,-118,75,43,-301
1.5169999999999995,-490,-368,-8298,-24,154,125,65,40,-303
1.529,-958,-1074,-7442,-74,395,329,59,49,-297
1.551000000000002,-1598,-1896,-11176,95,383,722,60,45,-306
1.5730000000000004,8790,-2340,-3356,-26,225,1137,60,35,-296
1.5850000000000009,-1516,-1322,-7568,15,346,-436,61,41,-309
1.6069999999999993,458,-112,-7780,-3,222,-237,62,48,-296
1.6189999999999998,456,46,-8012,-24,228,-164,52,54,-300
1.6410000000000018,484,-294,-7918,31,244,-129,54,51,-302
1.6530000000000022,788,208,-8126,17,378,-280,59,41,-295
1.6750000000000007,972,-80,-8024,38,278,-245,60,40,-310
1.6970000000000027,1122,-154,-8262,104,287,-555,60,32,-298
1.7089999999999996,386,-664,-8634,90,195,-701,58,43,-301
1.7310000000000016,-96,-984,-8044,44,306,-470,58,45,-306
1.743000000000002,830,-274,-7944,6,317,-231,59,36,-292
1.7650000000000006,968,-500,-7788,-20,1665,-335,56,34,-304
1.777000000000001,1520,-412,-7982,-93,2123,-381,54,41,-302
1.7989999999999995,946,-510,-8304,-106,1659,-310,46,30,-310
1.8210000000000015,1598,-236,-8012,-196,1318,-136,30,49,-300
1.833000000000002,2506,-454,-8554,-130,753,0,33,50,-303
1.8550000000000004,2660,-302,-8290,-176,-446,-176,23,49,-311
1.8670000000000009,2762,74,-8418,-352,-697,-315,21,35,-303
1.8889999999999993,2620,28,-8198,-547,13,-506,39,36,-300
1.9009999999999998,1430,146,-8360,-574,512,-601,31,37,-310
1.9230000000000018,1626,118,-8654,-658,632,-499,37,46,-302
1.9350000000000023,1550,102,-8592,-712,277,-378,24,40,-301
1.9570000000000007,2242,624,-8484,-768,-52,-283,30,51,-304
1.9790000000000028,1974,540,-8382,-698,-365,-525,23,49,-295
1.9909999999999997,1982,910,-8380,-686,-133,-500,24,53,-296
2.0130000000000017,1914,788,-8714,-769,132,-408,38,63,-289
2.025000000000002,1608,736,-8690,-879,514,-208,31,55,-296
2.0470000000000006,1422,712,-8420,-831,161,29,25,67,-288
2.059000000000001,2026,1202,-8406,-716,-214,205,31,73,-294
2.0809999999999995,2342,1580,-7996,-673,-403,180,37,67,-283
2.1030000000000015,2420,1466,-7872,-711,-287,113,42,77,-283
2.115000000000002,2202,1576,-7830,-763,7,25,32,79,-280
2.1370000000000005,1998,1604,-7834,-850,344,-48,31,78,-277
2.149000000000001,1740,1564,-7674,-835,347,-130,31,83,-279
2.1709999999999994,1736,1660,-7610,-755,27,-153,32,89,-276
2.183,2070,2126,-7822,-711,-169,-29,18,79,-273
2.205000000000002,2048,2112,-7996,-728,-142,0,32,89,-268
2.2270000000000003,2100,2272,-7724,-782,-92,-8,31,103,-255
2.2390000000000008,1810,2164,-7566,-781,-15,-6,33,101,-267
2.261000000000003,4232,2974,-9436,-1491,-193,-947,31,103,-251
2.2729999999999997,1280,2242,-7352,-1383,-525,-580,31,103,-258
2.2950000000000017,1532,2518,-7382,-1259,-538,-605,36,96,-248
2.307000000000002,592,1912,-6514,-973,-251,84,46,116,-241
2.3290000000000006,1930,2800,-7262,-341,47,768,44,122,-233
2.341000000000001,2462,3012,-7252,-317,-163,473,47,110,-240
2.3629999999999995,1832,2920,-7188,-404,-167,220,37,122,-235
2.3850000000000016,1378,2810,-6392,-1057,-527,-549,33,118,-243
2.397000000000002,1696,2944,-6862,-976,-342,-443,42,125,-228
2.4190000000000005,1190,3110,-6642,-778,-324,-226,32,127,-221
2.431000000000001,924,3000,-6208,-588,-92,100,38,116,-234
2.4529999999999994,1672,3206,-6780,-563,-186,201,38,134,-231
2.465,1590,3502,-7176,-650,-80,136,37,127,-225
2.487000000000002,1534,3744,-7564,-807,-93,25,44,127,-218
2.5090000000000003,1068,3442,-7218,-924,-287,-99,44,140,-218
2.521000000000001,1854,4126,-7104,-858,-380,-121,42,135,-206
2.5429999999999993,1424,3980,-7464,-912,-354,-199,35,143,-199
2.5549999999999997,1554,3958,-6812,-982,-214,-59,38,141,-210
2.5770000000000017,1094,3868,-6584,-947,-342,-45,41,141,-193
2.589000000000002,958,4246,-6812,-826,-486,36,46,136,-198
2.6110000000000007,944,4356,-7510,-845,-401,124,48,149,-181
2.6330000000000027,1544,4310,-6408,-825,-439,77,39,155,-192
2.6449999999999996,1034,4442,-5680,-781,-305,115,41,154,-188
2.6670000000000016,1400,4708,-6488,-835,-154,-24,38,149,-186
2.679000000000002,1194,4776,-6200,-864,-37,19,48,156,-169
2.7010000000000005,904,4756,-6692,-806,-197,-43,48,156,-169
2.713000000000001,1054,4884,-6630,-877,-236,-98,49,153,-175
2.7349999999999994,1378,5112,-6544,-917,-331,-131,43,149,-160
2.747,1032,5188,-6356,-892,-376,-146,41,167,-160
2.769000000000002,584,5374,-6884,-983,-279,-106,54,155,-151
2.7859979999999993,1132,5496,-6256,-1122,-386,-32,43,156,-153
2.808,964,5622,-5858,-1115,-458,-139,46,159,-148
2.8200000000000003,596,5534,-5796,-1152,-519,-361,49,173,-132
2.8420000000000023,700,5760,-5892,-1276,-464,-184,46,167,-133
2.8540000000000028,674,5634,-5176,-1263,-880,-131,48,162,-136
2.8760000000000012,1228,5508,-4274,-1173,-1394,145,54,173,-120
2.8880000000000017,162,5490,-5738,-1075,-186,46,54,173,-118
2.91,448,6148,-4046,-1159,-457,111,52,173,-123
2.932000000000002,604,6366,-3842,-1020,-282,75,55,172,-105
2.9440000000000026,-16,6268,-4316,-981,-249,14,50,164,-100
2.966000000000001,288,6406,-4644,-998,-292,-103,55,174,-90
2.9780000000000015,1030,6928,-3806,-1057,-457,-199,49,173,-94
3.0,-208,6234,-4146,-1043,-284,-17,49,178,-92
3.022000000000002,-64,6490,-3618,-939,-288,266,58,174,-78
3.0340000000000025,686,7050,-4102,-927,-208,144,43,174,-78
3.056000000000001,488,6930,-3624,-863,-225,71,55,174,-66
3.0680000000000014,362,6954,-3448,-802,-349,-105,59,173,-70
3.09,590,7216,-3806,-627,-488,-294,54,173,-65
3.1020000000000003,254,7068,-3708,-491,-413,-618,46,167,-64
3.1240000000000023,-314,6750,-3392,-571,-635,-263,50,167,-54
3.136000000000003,-280,6918,-3172,-647,-575,25,53,174,-59
3.1580000000000013,-116,6948,-3000,-685,-415,222,59,165,-53
3.1799999999999997,82,7130,-2998,-677,-309,204,49,165,-49
3.192,-56,7100,-2936,-690,-434,123,52,173,-49
3.214000000000002,96,7184,-3088,-692,-495,111,48,172,-38
3.2260000000000026,276,7248,-2634,-617,-565,84,50,169,-31
3.248000000000001,-256,7160,-2746,-534,-488,-2,42,170,-22
3.2600000000000016,-610,7302,-2844,-582,-337,53,49,175,-34
3.282,-360,7468,-3418,-683,-352,-26,55,177,-26
3.2940000000000005,-394,7128,-2592,-804,-676,2,35,175,-22
3.3160000000000025,8,7264,-1454,-741,-884,24,49,170,-27
3.338000000000001,-344,7384,-1760,-594,-402,42,55,172,-14
3.3500000000000014,-306,7520,-1954,-619,-432,67,39,165,-17
3.372,-352,7530,-1610,-527,-231,96,41,177,-9
3.3840000000000003,-82,7596,-1626,-445,-91,65,47,170,-15
3.4060000000000024,-478,7686,-1912,-405,-64,-6,42,163,-10
3.4179999999999993,-328,7692,-1952,-392,-180,9,39,165,-10
3.4400000000000013,-802,7642,-1830,-342,-188,-38,41,159,2
3.4619999999999997,-148,7966,-2546,-347,-192,-32,46,159,2
3.474,-614,7662,-2752,-522,-119,24,38,169,-4
3.496000000000002,-400,7530,-1794,-521,-248,182,48,172,7
3.5080000000000027,-44,7574,-1266,-424,-201,251,48,156,0
3.530000000000001,102,7510,-1418,-358,-190,155,49,168,13
3.5420000000000016,-22,7608,-1770,-340,-102,247,32,163,17
3.564,-134,7656,-1688,-424,-121,237,43,164,11
3.5760000000000005,0,7784,-1482,-488,-129,175,35,160,13
3.5980000000000025,236,7844,-866,-449,-131,140,39,160,15
3.620000000000001,16,7910,-504,-300,-6,33,25,158,17
3.6320000000000014,-150,7964,-940,-262,-20,34,29,151,14
3.654,-412,8070,-1138,-272,7,-28,26,149,16
3.6660000000000004,-370,7994,-940,-242,-101,0,30,150,22
3.6880000000000024,-128,8090,-982,-136,-219,-244,25,150,20
3.6999999999999993,-402,7900,-522,-70,-59,-350,29,149,9
3.7220000000000013,-260,8064,-1500,-163,167,-406,31,151,21
3.7439999999999998,30,7844,-1206,-197,-194,-435,47,158,25
3.7560000000000002,-530,7742,-784,-135,-353,-598,36,159,26
3.7780000000000022,-180,7894,-490,12,-472,-686,43,159,19
3.7900000000000027,-846,7664,-836,51,-230,-636,37,155,32
3.812000000000001,-240,8042,-924,53,-308,-557,47,148,15
3.8240000000000016,-944,7794,-1050,-28,53,-588,50,162,11
3.846,-912,7664,-1002,-42,-148,-348,53,156,23
3.868000000000002,-524,8004,-814,-140,-12,-249,53,151,4
3.8800000000000026,-326,8124,-588,-60,-247,-416,54,155,20
3.902000000000001,-656,8004,-28,142,-168,-572,47,158,17
3.9140000000000015,-1360,7872,424,554,377,-414,55,164,16
3.936,-1140,7836,-2014,640,1069,-213,56,163,15
3.9480000000000004,-836,7930,-808,360,1660,-260,65,151,14
3.9700000000000024,-1082,7886,-1788,242,1556,-372,65,151,9
3.9819999999999993,-1580,7314,-2294,-74,1314,-137,55,154,14
4.004000000000001,-2136,7562,-1872,-318,177,266,67,162,4
4.026,-1946,7104,-3932,-885,-1616,667,70,156,7
4.038,738,7930,-2822,-2411,-8780,1632,65,156,9
4.060000000000002,17756,23984,-14118,-1272,-3529,5571,58,154,16
4.072000000000003,-1970,8062,6526,-386,198,737,26,154,38
4.094000000000001,1948,8354,588,-773,4222,317,24,149,47
4.106000000000002,1006,7340,-248,164,9162,321,36,144,40
4.128,-592,7606,1744,783,5750,219,27,148,41
4.150000000000002,360,7700,-2950,845,3833,251,62,149,26
4.162000000000003,650,7854,-2714,457,2073,209,61,145,13
4.184000000000001,354,7700,-1904,68,723,297,61,145,25
4.1960000000000015,352,7828,-1876,-125,-103,422,72,159,16
4.218,784,7932,-632,-259,467,562,60,156,16
4.23,572,8032,-490,-351,1209,563,53,154,21
4.2520000000000024,658,7832,98,-144,1139,493,56,153,13
4.274000000000001,1100,7974,-22,-25,966,353,59,143,15
4.286000000000001,1230,8064,-420,-33,1407,235,47,158,10
4.308,940,8008,-446,-103,2365,240,58,151,4
4.32,852,7804,140,-4,2615,267,64,150,15
4.342000000000002,1338,7814,-338,82,3925,281,62,162,11
4.354000000000003,1220,7652,-50,462,3216,146,62,154,-4
4.376000000000001,1084,7780,794,480,3003,240,72,146,-9
4.388000000000002,1698,8042,-726,339,2407,198,76,160,-3
4.41,1542,7940,-384,345,2715,175,78,163,-15
4.432000000000002,1462,7786,676,357,3722,164,75,159,-28
4.444000000000003,620,7292,1118,359,4862,205,72,167,-31
4.466000000000001,1526,7642,572,376,5297,645,72,169,-28
4.4780000000000015,1870,7518,-176,569,5360,878,85,165,-39
4.5,2332,7784,-596,361,4943,840,78,155,-60
4.5120000000000005,2268,7572,902,394,5373,715,77,169,-71
4.5340000000000025,2772,7596,1246,474,6239,743,70,162,-62
4.556000000000001,3352,8102,-88,565,5699,555,78,170,-75
4.568000000000001,2256,7622,1400,560,5748,385,56,165,-96
4.59,2652,7910,996,471,6017,649,59,168,-108
4.602,2150,7812,684,436,6822,698,58,167,-117
4.624000000000002,2920,7672,612,642,6693,648,59,170,-115
4.636000000000003,2344,7496,1440,693,6877,555,37,158,-120
4.658000000000001,2222,7458,-188,978,6477,646,29,164,-129
4.670292,2204,8740,44,-33,7094,428,18,160,-137
4.692,2560,8012,570,239,4653,348,9,162,-141
4.714000000000002,1734,7520,1278,177,3041,317,-2,159,-138
4.726000000000003,2058,7880,1674,78,2220,234,-10,165,-135
4.748000000000001,2156,7808,1938,267,2279,105,-8,168,-142
4.760000000000002,1782,7576,2300,220,2547,-39,-16,167,-131
4.7869980000000005,1058,7410,2684,205,3076,18,-19,167,-136
4.7989999999999995,1832,7726,2714,415,3520,-19,-25,163,-137
4.8210000000000015,1310,7568,1454,442,3613,-13,-25,165,-144
4.833000000000002,1082,7684,3910,588,3408,62,-30,160,-139
4.855,1310,8006,1072,839,3472,89,-44,163,-139
4.867000000000001,942,7478,1324,182,3952,259,-50,156,-133
4.888999999999999,1756,7544,1080,198,2565,270,-52,165,-135
4.901,970,7706,2082,21,1781,77,-55,169,-143
4.923000000000002,1434,7834,3034,255,1977,9,-50,162,-138
4.945,570,7716,3252,283,2097,-20,-67,156,-131
4.957000000000001,64,7486,2222,342,2248,-32,-64,155,-118
4.979000000000003,960,7756,1774,373,2416,-35,-62,156,-126
4.991,288,7808,1912,300,2122,-50,-72,162,-129
5.013000000000002,422,7784,1882,275,2104,-125,-75,149,-131
5.025000000000002,162,7870,2270,400,2897,-96,-75,159,-131
5.047000000000001,142,7718,2016,303,3134,-88,-77,159,-121
5.059000000000001,-130,7966,1040,247,2559,-87,-78,158,-115
5.0809999999999995,-432,7796,2066,159,2477,22,-81,165,-123
5.1030000000000015,-336,7754,1862,69,2623,65,-84,154,-117
5.115000000000002,-326,7896,1646,46,3168,-30,-94,159,-119
5.1370000000000005,-328,7794,1982,-71,3266,-22,-89,151,-90
5.149000000000001,-772,7738,2506,-52,3203,-45,-82,151,-100
5.170999999999999,-518,7698,1418,111,3404,33,-83,150,-96
5.183,-1114,7494,2254,146,3400,94,-85,155,-94
5.205000000000002,-960,8162,774,107,2951,139,-90,160,-89
5.227,-1020,7906,2550,-278,2571,78,-95,158,-77
5.239000000000001,-1010,7946,2208,73,3372,161,-84,156,-78
5.261000000000003,-1692,7494,1780,-34,3943,102,-85,165,-63
5.273,-712,7984,1414,-18,4464,302,-94,162,-62
5.295000000000002,-1984,7612,684,-185,4514,270,-93,158,-44
5.307000000000002,-786,8084,480,-332,4994,428,-88,150,-51
5.329000000000001,-1438,7782,1128,-403,5155,510,-93,148,-32
5.341000000000001,-468,8126,658,-426,4889,532,-88,145,-17
5.3629999999999995,-1138,8040,1278,-335,4919,544,-88,150,-3
5.385000000000002,-1326,7920,1310,-385,4943,582,-79,149,-4
5.397000000000002,-1346,8188,1722,-409,6416,712,-79,154,0
5.4190000000000005,-430,7936,1018,-609,7598,566,-66,137,15
5.431000000000001,-1414,7746,240,-794,7742,455,-54,143,29
5.452999999999999,-772,7892,472,-785,7002,553,-53,139,35
5.465,-496,8202,808,-813,5768,492,-44,143,53
5.487000000000002,-236,8276,648,-536,4369,240,-20,145,60
5.509,-366,7508,-4166,-897,5001,-98,-12,131,66
5.521000000000001,-2084,7720,1900,-329,3315,0,0,139,62
5.542999999999999,-916,7866,-94,-161,2399,4,2,131,74
5.555,-1020,7978,670,-283,2448,139,3,140,63
5.577000000000002,-1224,7908,962,-148,1982,158,23,130,70
5.589000000000002,-1254,7772,640,-11,1534,101,26,131,64
5.611000000000001,-1322,7928,936,-6,1459,168,26,136,62
5.623285000000003,-1688,7880,-884,244,2630,41,33,136,76
5.646000000000001,-1584,8104,346,-86,2403,182,37,143,68
5.667999999999999,-508,8182,488,-104,2077,186,41,139,54
5.68,-2132,7608,692,33,1967,123,29,141,54
5.702000000000002,-1190,8084,530,168,1941,317,55,134,64
5.714000000000002,-1228,7834,-8,162,1977,375,55,134,52
5.736000000000001,-956,7300,614,220,2105,274,58,151,57
5.748000000000001,-756,8024,272,70,1737,279,54,135,46
5.77,-1200,8038,-288,126,1317,257,66,137,49
5.782,-1178,8008,-474,61,1003,331,78,143,46
5.804000000000002,-862,7932,-298,-51,727,356,78,140,41
5.8260000000000005,-888,8034,190,55,754,351,76,140,39
5.838000000000001,-782,8164,38,-1,934,386,76,137,41
5.859999999999999,-848,7908,356,53,859,318,72,129,45
5.872,-356,8016,2866,167,1497,338,69,143,37
5.894000000000002,-462,8114,-1128,-83,720,395,67,144,33
5.906000000000002,-546,8050,-690,13,753,353,73,140,44
5.928000000000001,-22,8134,178,101,471,202,69,143,34
5.949999999999999,-342,8108,-536,142,170,91,69,145,22
5.962,-452,8010,-514,111,11,41,77,139,35
5.984000000000002,-808,7954,-1868,102,-179,100,78,135,29
5.996000000000002,-166,8672,-4630,-5,604,221,72,141,33
6.018000000000001,12,8170,-80,-81,134,152,73,153,32
6.030000000000001,-396,7870,20,9,82,71,71,150,32
6.052,-148,8204,-610,85,-27,44,66,153,34
6.074000000000002,-578,7864,-438,-35,-11,18,70,144,31
6.086000000000002,-678,7726,814,-26,-59,71,70,151,28
6.1080000000000005,-502,8100,-376,-53,87,135,67,149,26
6.120000000000001,-410,8122,-650,-64,15,96,76,140,27
6.1419999999999995,90,8154,-336,-73,-272,70,77,134,26
6.154,-312,8104,-274,71,-881,-143,65,151,38
6.176000000000002,-438,8126,-192,182,-1208,-71,67,146,31
6.188000000000002,-416,8082,-738,185,-1381,24,77,136,26
6.210000000000001,-30,8096,-196,174,-1479,-93,66,145,22
6.231999999999999,8,7760,-32,210,-1436,-78,70,149,40
6.244,-744,7992,-822,174,-1627,-137,59,143,34
6.266000000000002,-782,7920,-22,75,-1476,4,65,136,31
6.278000000000002,-438,8042,-244,235,-1585,-22,54,148,34
6.300000000000001,-210,8120,-286,193,-1590,-50,54,153,39
6.322000000000003,-954,7970,-880,159,-1558,-14,42,137,41
6.334,-346,8066,-398,142,-2082,83,46,151,38
6.356000000000002,-318,8046,-222,207,-2101,-12,39,158,34
6.368000000000002,-360,8110,-570,220,-2102,-85,32,153,39
6.390000000000001,-1268,7794,-526,169,-2231,-27,31,146,50
6.402000000000001,-716,7928,-568,280,-2698,60,23,148,46
6.4239999999999995,-528,8084,-718,330,-2939,84,20,150,49
6.436,-558,8092,-704,359,-3458,129,9,151,38
6.458000000000002,-738,7736,-654,439,-3712,-53,8,145,41
6.470292000000001,-784,8072,-510,467,-4022,119,2,149,43
6.492000000000001,-832,8000,-550,542,-4501,102,-8,153,44
6.513999999999999,-538,8104,-758,784,-6235,256,-12,156,28
6.526,-586,8194,-1814,802,-7671,124,-25,163,25
6.548000000000002,780,8352,-1444,765,-9756,32,-36,156,14
6.560000000000002,84,7990,-950,663,-11156,-259,-55,151,7
6.582000000000001,714,8286,-676,675,-12270,-338,-70,159,-11
6.604000000000003,-116,8930,-1334,629,-14681,-31,-64,160,-25
6.616,1640,7882,800,985,-13821,-639,-81,160,-60
6.638000000000002,-2448,7636,1356,320,-11691,-466,-78,158,-92
6.650000000000002,716,7956,398,400,-12140,-369,-72,156,-95
6.672000000000001,114,7724,2130,5,-11726,-688,-72,174,-121
6.684000000000001,-784,7634,2784,-56,-10331,-819,-30,160,-130
6.7059999999999995,-2046,7632,2286,-322,-7963,-430,-26,164,-141
6.718,-878,7858,3500,-464,-5518,-129,-7,174,-150
6.740000000000002,-566,7896,2714,-123,-4464,-254,-6,165,-142
6.7620000000000005,-1014,7924,1074,-144,-4673,-304,14,156,-145
6.774000000000001,-548,8254,1772,-214,-5543,-323,10,158,-147
6.790998000000002,-616,7716,1432,-328,-6835,-14,27,175,-130
6.813000000000002,1370,7922,2592,-387,-7330,-30,20,155,-135
6.824999999999999,626,7634,1866,-504,-7366,-360,43,169,-129
6.847000000000001,2092,8176,1908,-628,-7363,-572,43,156,-117
6.859000000000002,3346,7352,1604,-808,-8522,-1245,62,162,-117
6.881,2916,7746,3220,-1634,-8807,-1867,67,169,-112
6.903000000000002,668,7062,4790,-1383,-7504,-1770,94,156,-83
6.915000000000003,534,7016,5696,-837,-5070,-1300,85,155,-49
6.937000000000001,160,7100,3506,-501,-3963,-950,96,151,-62
6.949000000000002,340,7352,3158,-264,-3066,-508,89,162,-43
6.971,1602,7794,2602,-153,-3625,-442,100,155,-44
6.9830000000000005,2030,7640,2052,-63,-5035,-618,92,156,-28
7.005000000000003,1278,7432,2430,-228,-2656,-877,96,156,-21
7.027000000000001,-6,6902,2908,-606,-2144,-501,94,162,-16
7.0390000000000015,1466,7498,3214,-259,-1696,-250,95,148,-10
7.061,1662,7576,2344,-50,-1929,-335,90,143,-1
7.073,1692,7704,1778,-106,-2976,-373,90,148,-1
7.095000000000002,2104,7812,2030,-71,-4996,-393,89,151,0
7.106999999999999,2286,7938,3680,-8,-4560,-732,84,139,9
7.129000000000001,-132,6834,3006,-396,-1170,-359,79,149,19
7.141000000000002,1482,7696,3324,-198,235,156,83,148,29
7.163,2110,7620,1792,108,-554,99,71,140,25
7.185000000000002,2730,7986,1276,300,-2611,-218,78,148,27
7.197000000000003,2514,7742,616,189,-4809,-381,73,148,25
7.219000000000001,2792,7658,2656,148,-5754,-468,70,144,26
7.231000000000002,1758,7496,4170,381,-4236,-608,54,153,34
7.253,-118,7114,3268,603,576,-252,53,134,43
7.265000000000001,2170,7278,-2956,1614,1607,-236,61,143,44
7.287000000000003,1478,8016,-422,558,-137,-645,66,148,29
7.309000000000001,2210,8142,-50,714,-1129,-423,59,145,20
7.3210000000000015,1450,7996,1280,685,-1150,-667,69,150,15
7.343,1710,8386,1292,812,-1631,-834,59,160,22
7.355,1276,8274,-1452,726,-2466,-1125,70,136,19
7.3770000000000024,1404,8208,6550,-1,-2154,-845,71,155,29
7.388999999999999,-3704,5638,-11402,-336,-2414,90,62,146,21
7.411000000000001,2262,8598,1128,-1207,-2681,674,65,154,28
7.423000000000002,5826,8402,934,-76,-2109,-589,48,144,40
7.445,-96,7776,1340,-846,-3988,-525,46,154,38
7.467000000000002,406,8010,346,-442,-2548,-89,32,150,37
7.479000000000003,1430,8004,380,-609,-1740,-25,35,135,53
7.501000000000001,2116,7924,-508,-691,-2879,-366,29,141,45
7.513000000000002,1734,7704,-92,-833,-3453,-644,29,136,52
7.535,888,7726,410,-820,-3853,-534,24,134,66
7.547000000000001,700,7874,1558,-775,-2992,-200,15,130,65
7.569000000000003,950,8008,1782,-611,-1452,50,6,140,68
7.591000000000001,1622,7924,630,-565,-1535,-67,2,129,69
7.6030000000000015,1084,7648,1646,-405,-1454,-8,-14,136,81
7.625,2154,7978,760,-125,-1755,-3,-12,129,54
7.6370000000000005,1130,7862,914,-120,-1498,8,-8,130,68
7.6590000000000025,1422,7982,-176,-185,-2033,40,-7,129,71
7.670999999999999,1188,8030,454,-366,-2324,115,-26,136,74
7.693000000000001,2096,8112,586,-644,-2881,-8,-23,125,75
7.715,1472,7740,2274,-441,-2487,-64,-27,125,68
7.727,2052,7728,366,-376,-2548,-217,-37,125,68
7.749000000000002,1352,7808,692,-519,-2626,-252,-48,121,69
7.761000000000003,772,7794,1412,-457,-2423,-183,-58,124,81
7.783000000000001,850,7846,1534,-236,-1328,-8,-53,113,71
7.795000000000002,1458,7942,-96,-174,-1132,14,-67,124,64
7.817,1514,7712,-128,-435,-1858,20,-69,125,63
7.829000000000001,1584,7732,118,-563,-2353,-23,-72,129,69
7.851000000000003,1488,7762,814,-574,-2642,-26,-75,113,71
7.873000000000001,1460,7928,1026,-558,-2479,2,-69,125,65
7.885000000000002,1792,7844,984,-546,-2210,-1,-85,112,56
7.907,1790,7766,898,-457,-2265,-150,-96,113,66
7.9190000000000005,1470,8008,1680,-400,-1819,-224,-94,113,52
7.9410000000000025,1442,7722,94,-258,-1719,-154,-94,113,54
7.963000000000001,1624,7664,-548,-494,-2702,-58,-105,117,58
7.975000000000001,1258,7824,564,-666,-3042,87,-106,111,38
7.997,1772,7908,2148,-568,-2744,179,-111,106,40
8.009,2202,8014,770,-395,-2120,76,-113,111,35
8.031000000000002,1902,7864,1324,-276,-1910,-62,-119,102,29
8.043,1496,7888,434,-238,-1554,-109,-127,110,32
8.065000000000001,2156,7670,-1838,-479,-2441,-41,-129,120,20
8.077000000000002,1360,8194,2704,-743,-2546,-128,-134,105,20
8.099,1696,7980,1280,-230,-1954,-75,-135,108,7
8.121000000000002,1802,7948,596,-339,-1735,-98,-146,102,3
8.133000000000003,1632,7938,754,-496,-1742,-228,-151,94,-5
8.155000000000001,1774,7766,762,-411,-1652,-232,-140,108,7
8.167000000000002,2012,7658,454,-390,-1814,-273,-145,98,0
8.189,1790,7888,1332,-419,-1568,-323,-146,99,-5
8.201,1484,7944,1076,-204,-1030,-251,-153,102,1
8.223000000000003,1518,7980,498,-192,-874,-237,-147,106,-9
8.235,1670,7902,778,-248,-884,-218,-147,106,-11
8.257000000000001,1532,7686,314,-227,-975,-196,-155,103,-19
8.279,1768,7776,844,-289,-1476,-200,-145,103,-16
8.291,1470,7782,1278,-180,-1080,-205,-145,106,-16
8.313000000000002,1188,7978,1130,-239,-434,-128,-156,115,-27
8.325,1672,8026,1376,-209,497,-136,-146,112,-25
8.347000000000001,1498,7898,1144,-186,698,-147,-153,110,-25
8.359000000000002,1632,8422,2480,-91,2374,-172,-158,110,-29
8.381,1732,8144,2692,171,4847,-153,-146,107,-17
8.403000000000002,3230,7830,2118,715,6880,-43,-142,118,-9
8.415000000000003,1278,7890,784,587,6465,-376,-135,111,7
8.437000000000001,2240,6510,5016,66,9372,754,-122,112,25
8.449000000000002,1474,7114,978,1339,8451,-87,-102,110,53
8.471,884,7678,494,866,7448,438,-84,111,62
8.483,1682,7934,524,875,7059,481,-75,103,64
8.505000000000003,1544,7706,-436,743,6261,294,-67,113,59
8.527000000000001,842,7876,80,476,4490,211,-29,126,74
8.539000000000001,630,7926,550,433,3823,239,-26,131,78
8.561,434,8180,284,298,3552,286,-21,116,76
8.573,426,7902,1546,238,3774,374,-18,145,82
8.595000000000002,518,8186,1756,394,4356,350,6,127,80
8.607,646,7770,850,362,5050,526,14,124,69
8.629000000000001,1642,7710,-390,352,3432,354,15,120,72
8.651,666,8050,636,223,1753,13,33,126,69
8.663,406,8094,292,169,2150,93,32,135,60
8.685000000000002,364,7924,284,44,1421,10,36,141,66
8.697000000000003,330,8062,336,-20,1042,65,36,134,69
8.719000000000001,378,7800,606,-111,607,-11,54,143,65
8.731000000000002,-92,7776,1394,-45,491,71,43,131,64
8.753,142,7714,2772,-7,1207,96,52,132,56
8.765,456,8034,856,270,1938,138,49,127,56
8.791998,-576,7514,646,202,1919,261,53,129,62
8.804000000000002,470,8050,916,220,1930,544,55,134,47
8.826,140,7586,3120,1035,4576,487,66,125,58
8.838000000000001,1342,8052,-844,1129,3868,776,72,139,50
8.86,1448,8138,-1488,556,2588,569,75,139,43
8.872,1234,8248,-570,192,663,205,79,151,38
8.894000000000002,774,8130,-230,38,-91,7,82,146,26
8.906000000000002,850,8100,44,-21,-856,-202,79,149,26
8.928,82,7878,1068,-44,-558,-71,77,149,26
8.95,884,8178,132,72,-434,-5,93,148,27
8.962,200,7688,-14,-60,-429,34,77,144,31
8.984000000000002,772,7614,-390,78,-1327,-51,71,153,41
8.996000000000002,74,7348,38,-8,-1718,-47,67,144,14
9.018,1076,7962,350,21,-2345,90,78,155,41
9.030000000000001,494,8102,1214,142,-2328,-32,70,146,26
9.052,688,8092,162,255,-1440,-73,65,146,38
9.074000000000002,768,8034,712,320,-756,-114,59,150,41
9.086000000000002,1126,8110,570,419,-1018,-130,55,146,33
9.108,714,7974,674,650,-779,-267,52,148,37
9.120000000000001,418,7850,522,781,-1138,-227,58,151,40
9.142,458,7728,622,985,-1826,-150,60,159,35
9.154,792,8444,-18,1244,-1774,-272,44,153,29
9.176000000000002,-198,8058,-942,875,171,-230,55,154,21
9.188000000000002,52,7918,-1116,741,284,-29,50,151,23
9.21,564,7972,-584,781,109,-126,47,148,25
9.232,542,7986,-204,982,565,-170,50,154,16
9.244,484,7906,-296,1108,145,-106,50,149,11
9.266000000000002,240,7550,-864,1299,-532,-205,58,159,11
9.278000000000002,956,8290,-1568,1481,-1165,-353,55,154,2
9.3,-436,7660,-3212,1050,-666,-514,48,174,2
9.312000000000001,-158,7730,-1818,895,-541,-281,54,163,-8
9.334,-354,7724,-1150,1091,-447,-203,66,163,-5
9.356000000000002,308,7832,-1190,1430,181,-374,61,163,-17
9.368000000000002,-410,7376,-1674,1749,-270,-426,52,168,-22
9.39,-372,7244,-1672,2093,-1209,-508,66,170,-25
9.402000000000001,28,7364,-2300,2404,-1486,-713,52,160,-32
9.424,-596,6890,-3592,2414,-1419,-924,62,177,-50
9.436,-1594,6486,-4398,2023,-1043,-685,65,169,-52
9.458000000000002,-1154,6454,-3706,1762,-951,-403,72,167,-59
9.470285,-1252,6492,-3854,1819,-1127,-389,72,164,-74
9.492,-1598,6234,-3522,1865,-980,-439,73,165,-80
9.514,-1500,6056,-4080,2005,-941,-377,81,160,-82
9.526,-1080,6146,-5086,1947,-1086,-485,85,165,-84
9.548000000000002,-1834,5732,-5482,1746,-741,-515,73,173,-94
9.560000000000002,-1616,5638,-5232,1567,-448,-313,83,168,-94
9.582,-1702,5436,-4582,1490,-33,-310,89,172,-109
9.594000000000001,-1554,5258,-4412,1668,-102,-366,94,156,-119
9.616,-1614,5074,-5704,1750,82,-513,90,153,-118
9.638000000000002,-1782,4952,-6520,1758,8,-565,94,164,-133
9.650000000000002,-2350,4520,-6432,1635,97,-559,89,154,-148
9.672,-2234,4446,-6658,1647,86,-245,101,144,-145
9.684000000000001,-1938,4416,-6810,1441,295,-165,90,155,-151
9.706,-1742,4256,-6944,1376,437,-25,94,141,-162
9.718,-1500,4148,-7080,1328,97,-148,101,141,-167
9.740000000000002,-1688,3954,-6976,1277,24,-276,95,132,-166
9.762,-1666,3768,-6868,1274,-277,-405,94,141,-174
9.774000000000001,-2358,3212,-6134,1255,125,-454,96,129,-179
9.796,-2068,3066,-6134,1455,698,-106,99,134,-188
9.808,-1456,3132,-6520,1563,833,-197,94,124,-196
9.830000000000002,-1064,2914,-6774,1663,881,-383,95,122,-202
9.842000000000002,-974,2722,-7078,1814,601,-558,101,116,-205
9.864,-1210,2334,-7908,1746,760,-687,96,103,-207
9.876000000000001,-1466,2056,-8080,1623,561,-799,99,91,-217
9.898,-2094,1504,-7412,1558,745,-884,99,91,-219
9.920000000000002,-1936,1232,-7440,1706,1326,-542,106,96,-234
9.932000000000002,-1688,1018,-8284,1801,753,-283,104,81,-241
9.954,-1080,1014,-8210,1694,664,-380,93,79,-252
9.965999999999998,-1158,630,-9132,1564,563,-436,90,69,-249
9.988000000000003,-1260,540,-9806,1347,251,-413,100,64,-252
10.000000000000004,-1428,144,-9780,943,538,-402,96,55,-270
10.022000000000002,-1520,-30,-9012,833,-292,-235,99,53,-258
10.044,-1120,44,-8624,780,-546,-256,102,56,-278
10.056000000000001,-1694,-258,-8526,804,-1110,-215,92,45,-265
10.078,-1854,-398,-9294,777,-593,-1,100,46,-266
10.09,-1668,-254,-9388,400,-557,59,112,49,-283
10.111999999999998,-1470,-142,-8338,259,-558,156,111,37,-265
10.123999999999999,-1246,-112,-7936,197,-484,7,99,37,-272
10.146000000000004,-1698,-232,-8006,252,-296,74,101,35,-262
10.168000000000003,-1282,-68,-8312,200,-333,28,117,29,-268
10.180000000000003,-1638,-112,-8382,71,-332,-33,110,31,-268
10.202000000000002,-1612,-130,-8182,-62,-106,-114,110,36,-264
10.214000000000002,-1782,-160,-7346,27,-320,-164,116,32,-251
10.236,-1528,-48,-7764,30,-244,-199,115,31,-259
10.248000000000001,-1820,-164,-7858,53,-177,-247,106,25,-270
10.27,-1834,-196,-7484,41,-131,-307,121,35,-262
10.282,-1872,-286,-8088,48,13,-275,108,32,-265
10.303999999999998,-2286,78,-7558,123,-230,-215,125,27,-265
10.326000000000004,-2166,-502,-8312,82,345,148,122,24,-264
10.338000000000005,-1762,-244,-7942,-42,151,76,106,27,-270
10.360000000000003,-1732,-516,-8340,-30,333,115,119,31,-264
10.372000000000003,-1788,-616,-8352,-230,565,58,117,39,-259
10.394000000000002,-2188,-548,-8110,-254,592,148,110,34,-268
10.406000000000002,-1570,-242,-7808,-289,426,170,116,35,-272
10.428,-1438,-426,-7934,-249,495,67,107,29,-268
10.45,-1010,-504,-7898,-163,442,6,116,27,-267
10.462,-1360,90,-7920,-132,365,-88,112,34,-271
10.483999999999998,-1482,-260,-8242,-194,829,-63,105,39,-271
10.495999999999999,-1230,-292,-7496,-161,1336,-97,102,36,-268
10.518000000000004,-956,-58,-8154,-280,1869,-154,96,35,-272
10.529999999999998,-288,-52,-7664,-307,2220,-104,89,37,-274
10.552000000000003,-330,-486,-7664,-115,3083,-554,88,46,-276
10.574000000000002,468,-140,-8190,-432,4093,-383,73,41,-283
10.586000000000002,2026,106,-8030,-831,5628,-540,66,34,-283
10.608,2722,204,-8074,-1114,7858,-736,42,46,-280
10.620000000000001,2646,210,-8872,-1029,6901,-518,25,34,-285
10.642,2710,46,-7650,-1033,3411,336,-15,56,-288
10.654,4446,668,-5610,-888,3631,448,-24,55,-282
10.675999999999998,4774,684,-5912,-716,3884,391,-39,51,-278
10.698000000000004,6326,1210,-5748,-552,4165,277,-43,53,-284
10.710000000000004,6398,142,-4298,-613,6739,-190,-73,62,-259
10.732000000000003,6218,566,-5856,-1158,7338,35,-101,55,-258
10.744000000000003,6368,720,-3162,-1121,5387,358,-115,56,-233
10.766000000000002,7734,1304,-2348,-398,3834,272,-130,68,-227
10.778000000000002,7854,1190,-2648,-37,3253,169,-155,68,-205
10.794998000000003,8540,1074,-1568,150,3260,-60,-156,69,-185
10.817000000000004,8786,1254,-944,254,3557,-286,-165,59,-192
10.829000000000004,8496,1078,-1478,343,4385,-400,-168,69,-170
10.851000000000003,7200,754,-490,429,3136,-351,-175,64,-156
10.873000000000001,6968,886,-718,104,6137,-263,-188,68,-145
10.885000000000002,8306,344,3234,460,5592,-53,-190,62,-137
10.907,8166,808,2232,318,5132,-82,-179,68,-114
10.919,7812,872,1992,316,4151,-66,-190,56,-89
10.940999999999999,7986,1040,2894,163,4860,-20,-186,73,-74
10.953,7702,976,4356,352,4698,-96,-188,68,-62
10.974999999999998,7032,890,4566,310,4139,-149,-190,74,-53
10.997000000000003,6188,1034,4636,83,4648,-251,-194,64,-20
11.009000000000004,5524,1214,4920,-129,4583,-69,-174,70,-7
11.031000000000002,4962,1202,5946,-245,4362,124,-178,79,-3
11.043000000000003,5002,1152,7510,-244,3979,171,-173,62,20
11.065000000000001,5580,1256,7396,14,3774,147,-163,69,41
11.077000000000002,4822,982,8202,5,4201,-97,-151,67,44
11.099,3562,1014,6946,124,4875,-153,-142,58,64
11.120999999999999,2764,1132,6696,-51,4614,-135,-144,69,68
11.133,1810,1194,6826,-328,3602,-114,-123,70,81
11.154999999999998,1802,1156,8426,-232,2780,33,-104,65,105
11.166999999999998,1300,1122,8566,-181,2767,16,-104,70,107
11.189000000000004,1134,1028,8280,-121,2835,-49,-93,74,108
11.201000000000004,714,1030,8878,-3,3176,-172,-82,73,114
11.223000000000003,48,986,8304,-5,3253,-121,-73,62,125
11.235000000000003,-514,1126,8628,22,3151,-92,-62,75,126
11.257000000000001,-654,1098,8328,-107,4275,-230,-48,63,131
11.279,-1152,804,10060,-92,5730,-324,-29,70,141
11.291,-2018,1104,7528,52,6841,-615,-6,72,132
11.312999999999999,-5058,778,5150,188,4588,-281,4,68,131
11.325,-3568,1170,5902,36,2550,-75,29,73,124
11.346999999999998,-4850,798,7762,-46,1918,-70,52,74,130
11.358999999999998,-4536,1158,6952,158,1955,18,55,73,126
11.381000000000004,-5366,1076,7008,212,2223,-53,54,69,130
11.403000000000002,-4932,1152,6368,208,2071,9,62,73,121
11.415000000000003,-5354,1218,5922,209,2151,-55,73,74,103
11.437000000000001,-5320,1300,5744,139,2071,-117,93,79,106
11.449000000000002,-6008,1118,5348,22,2220,-108,88,74,111
11.471,-6666,876,6232,52,3127,-112,100,79,103
11.483,-6594,942,5514,263,3403,3,111,83,100
11.504999999999999,-6596,1170,4292,237,3847,34,113,81,93
11.517284999999998,-6246,1276,4424,184,3949,-124,125,70,93
11.540000000000003,-7394,1012,3220,117,4812,-247,124,82,68
11.562000000000001,-7368,1088,2434,13,4788,-247,156,77,58
11.574000000000002,-7656,1024,2118,17,4166,-428,153,74,41
11.596,-8474,716,1688,-20,4238,-362,173,82,37
11.608,-8450,764,1208,3,4609,-145,168,74,27
11.629999999999999,-7610,996,32,150,3749,-100,187,82,-5
11.642,-7778,956,-736,103,4225,-294,185,87,-15
11.663999999999998,-8312,728,-1358,59,4747,-349,196,75,-31
11.686000000000003,-7488,784,-1322,33,5007,-180,204,74,-37
11.698000000000004,-7088,930,-2964,-36,5442,-178,209,69,-77
11.720000000000002,-6730,896,-3032,-61,5257,-239,211,62,-89
11.732000000000003,-6104,774,-2732,207,4882,-341,199,72,-99
11.754000000000001,-6360,722,-5226,318,4658,-333,197,72,-118
11.766000000000002,-5630,832,-6600,213,2798,-302,194,62,-147
11.788,-5592,740,-5412,270,1339,-419,184,58,-162
11.8,-6044,334,-5638,403,1310,-466,186,70,-157
11.822,-6092,300,-6338,154,1163,-335,190,51,-173
11.843999999999998,-5808,328,-6072,-25,1530,-339,185,69,-175
11.855999999999998,-5986,176,-5990,1,1669,-256,190,64,-175
11.878000000000004,-5250,202,-5800,-10,2120,-109,186,60,-181
11.890000000000004,-4660,356,-6368,225,1999,-218,171,55,-179
11.912000000000003,-4632,322,-7328,212,1620,-296,161,51,-206
11.924000000000003,-4888,200,-7260,36,1192,-278,163,51,-202
11.946000000000002,-4526,98,-6892,-68,849,-226,167,48,-203
11.968,-3878,272,-6636,26,468,-385,159,48,-210
11.98,-4310,54,-6506,152,1435,-429,167,50,-210
12.001999999999999,-3958,158,-7548,193,1623,-373,169,40,-222
12.014,-3524,154,-7222,107,1601,-369,161,54,-228
12.035999999999998,-3898,-118,-7344,280,1410,-376,148,49,-225
12.047999999999998,-3908,-290,-8682,161,1281,-323,142,45,-224
12.070000000000004,-4252,-204,-9224,-358,605,-134,142,30,-231
12.092000000000002,-4084,-168,-8046,-510,-555,130,138,53,-236
12.104000000000003,-3826,-178,-7330,-502,-967,316,145,43,-234
12.126000000000001,-3010,110,-6338,-251,-1257,265,141,49,-237
12.138000000000002,-3330,118,-7264,31,-1259,-4,151,49,-233
12.16,-4470,88,-8654,-112,-1895,-23,151,36,-235
12.172,-5062,34,-9314,-441,-3412,243,157,40,-219
12.193999999999999,-5288,-118,-8280,-882,-5683,580,169,48,-200
12.206,-4144,440,-4336,-574,-5614,602,171,48,-186
12.227999999999998,-4032,738,-4300,184,-6565,31,186,53,-184
12.250000000000004,-5806,766,-4896,631,-7497,-359,185,59,-156
12.262000000000004,-8290,16,-5644,98,-8048,-197,210,55,-114
12.284000000000002,-8928,-104,-2660,-391,-9557,658,208,53,-90
12.296000000000003,-7538,340,726,-60,-6820,991,221,54,-56
12.318000000000001,-7098,798,26,169,-6292,862,210,60,-21
12.330000000000002,-7700,774,772,161,-6183,730,191,58,9
12.352,-6268,1196,1396,393,-8132,808,174,75,21
12.373999999999999,-4550,1594,3398,808,-9656,120,176,78,45
12.386,-4044,1474,3672,588,-9165,-623,140,73,59
12.407999999999998,-6050,574,5954,119,-8662,-852,115,67,99
12.419999999999998,-7078,-100,9714,-62,-4077,-135,87,75,109
12.442000000000004,-4236,1144,7066,310,-3010,-74,72,81,112
12.454000000000004,-4656,1052,7134,335,-3356,-123,58,63,117
12.476000000000003,-4686,1094,5514,-130,-1963,-17,54,72,125
12.498000000000001,-3202,1170,8086,364,-4015,-130,31,70,124
12.510000000000002,-2832,896,7138,119,-4040,-126,33,81,129
12.532,-2120,988,8280,103,-3363,-124,20,59,130
12.544,-1458,1324,7244,262,-3920,-318,1,79,127
12.565999999999999,-1500,1218,7682,74,-5070,-316,-18,89,135
12.578,244,1376,8058,184,-7340,-123,-23,79,132
12.599999999999998,2230,1462,7786,612,-10304,-188,-37,87,123
12.612285000000004,3946,1180,8048,783,-11948,-341,-90,87,94
12.634000000000004,3964,834,6172,188,-10491,-149,-119,84,80
12.656000000000002,5556,1064,6776,-398,-8440,115,-141,84,56
12.668000000000003,7292,1476,6600,-318,-6857,79,-157,83,35
12.690000000000001,7874,1356,4762,-205,-7333,-145,-174,83,4
12.702000000000002,9134,1500,3526,43,-8185,-308,-187,87,-22
12.724,8678,1198,1126,-14,-9158,-477,-188,86,-38
12.736,9170,1468,-582,-296,-10639,-450,-176,86,-66
12.758,9770,1204,-278,-388,-11334,-509,-168,92,-113
12.779999999999998,7070,1132,-1156,-235,-10126,-277,-162,86,-164
12.796997999999999,8348,1640,-2766,-262,-8960,-83,-150,98,-172
12.809000000000001,6898,1486,-3194,-39,-6034,-28,-131,87,-199
12.831,6476,1712,-5920,-12,-5790,-162,-95,89,-223
12.843,5872,1590,-6066,-124,-6126,-189,-83,92,-235
12.864999999999998,3928,1392,-7024,-45,-6171,-154,-64,87,-249
12.876999999999999,4548,1800,-7444,-109,-5790,-175,-59,97,-245
12.899000000000004,3792,1820,-7020,-111,-6536,-356,-16,88,-255
12.921000000000003,2210,1742,-7320,-58,-6416,-463,-6,99,-252
12.933000000000003,1046,1730,-8214,-279,-5732,-403,9,93,-260
12.955000000000002,324,1876,-8000,-439,-5348,-262,35,89,-256
12.967000000000002,-312,1920,-8092,-567,-5412,-271,69,89,-235
12.989,-1188,1806,-7782,-637,-5819,-257,79,86,-236
13.001000000000001,-2370,1938,-6588,-505,-6658,-111,94,98,-215
13.023,-2842,2186,-5064,-208,-5217,-174,101,96,-222
13.044999999999998,-3502,2526,-6506,-28,-4385,-291,130,103,-198
13.056999999999999,-4242,2132,-6754,-124,-3758,-286,141,92,-180
13.079000000000004,-4362,2166,-6806,-138,-4197,-263,148,99,-178
13.090999999999998,-5112,1954,-6312,-110,-5404,-403,156,94,-173
13.113000000000003,-5894,1666,-5624,-136,-6354,-375,155,91,-143
13.125000000000004,-5940,1584,-4048,-55,-7297,-419,173,89,-137
13.147000000000002,-6434,1808,-1680,-73,-7011,-597,173,87,-108
13.169,-7584,1930,-2010,14,-6170,-641,180,82,-80
13.181000000000001,-7718,1820,-1342,-345,-5113,-498,190,94,-46
13.203,-7748,1688,50,-303,-4239,-522,188,101,-33
13.215,-7432,1988,138,-289,-4021,-621,179,96,-23
13.236999999999998,-8182,1788,598,-172,-3565,-657,174,91,-21
13.248999999999999,-8324,1460,1192,-226,-2987,-567,178,89,3
13.271000000000004,-7822,1020,2242,-67,-2474,-510,173,84,22
13.282999999999998,-7550,1324,1460,-199,-2482,-699,171,78,14
13.305000000000003,-7672,1046,1236,-301,-2469,-788,173,72,22
13.327000000000002,-7442,844,2352,-524,-3049,-895,171,73,40
13.339000000000002,-7264,850,2710,-433,-3432,-963,157,68,52
13.361,-7028,546,3034,-525,-4376,-1001,152,68,57
13.373000000000001,-6864,352,5742,-543,-4400,-951,161,51,70
13.395,-6668,366,6302,-213,-2806,-816,129,62,101
13.407,-6910,230,4422,-232,-2513,-748,134,54,113
13.428999999999998,-7044,306,6452,-426,-1449,-516,130,53,112
13.440999999999999,-7820,200,7450,-273,1289,-147,121,48,107
13.463000000000005,-6496,250,6992,56,3508,106,129,49,111
13.485000000000003,-7332,604,8190,69,6073,-159,131,41,103
13.497000000000003,-7688,246,8426,812,11440,150,141,44,92
13.519000000000002,-4884,-244,388,1463,14127,778,161,54,75
13.531000000000002,-3756,574,-4346,642,11887,168,204,62,-5
13.553,-4888,724,-1638,299,9774,-474,202,56,-53
13.565000000000001,-6290,-168,-4676,662,9700,-681,204,56,-82
13.587,-5436,-134,-6060,386,8172,-806,213,55,-114
13.608999999999998,-6122,-622,-6188,729,6824,-666,193,60,-169
13.620999999999999,-4222,-448,-5872,887,6075,-536,184,60,-191
13.643000000000004,-4140,-902,-8238,1310,4839,-357,171,37,-205
13.654999999999998,-3130,-568,-7522,1184,3542,-249,161,34,-228
13.677000000000003,-3342,-988,-7856,1192,2878,-222,142,27,-246
13.689000000000004,-3084,-1252,-6922,1188,2950,-187,133,20,-248
13.711000000000002,-2422,-1208,-7722,1447,2612,51,122,21,-259
13.733,-1580,-1412,-7290,1469,2683,52,125,20,-274
13.745000000000001,-1042,-1526,-7632,1576,2383,-51,107,11,-285
13.767,-1456,-2128,-7384,1670,1866,-262,89,7,-286
13.779,-1184,-2168,-6222,1941,1575,-264,90,-1,-292
13.800999999999998,-1128,-2838,-7842,2155,1731,-129,87,-5,-294
13.812999999999999,-580,-3204,-8024,1921,1643,88,73,-24,-292
13.835000000000004,408,-3106,-5876,1833,2471,-18,59,-36,-311
13.846999999999998,892,-3546,-6984,2069,2892,-101,60,-37,-308
13.869000000000003,302,-4540,-7768,2291,2639,-200,56,-46,-314
13.891000000000002,738,-4752,-8274,2155,2337,-128,32,-56,-314
13.903000000000002,904,-4560,-6690,1761,2683,-26,25,-64,-316
13.925,-150,-4550,-6134,2041,2153,271,19,-73,-322
13.937000000000001,1760,-4546,-5542,2414,320,688,1,-84,-309
13.959,2330,-5292,-6400,2547,107,500,-6,-99,-311
13.971,2138,-5808,-6184,2440,206,166,-9,-101,-313
13.992999999999999,2072,-5694,-4484,2341,322,2,-7,-108,-317
14.015000000000004,440,-6276,-4700,2515,743,66,-9,-131,-320
14.027000000000005,1110,-6688,-5716,2512,115,545,-10,-143,-314
14.049000000000003,1858,-6950,-5288,2331,-242,465,-12,-164,-301
14.061000000000003,1446,-7258,-4662,2255,-418,444,-6,-165,-307
14.083000000000002,2784,-7102,-4148,2208,186,97,-7,-169,-286
14.095000000000002,530,-7918,-4624,2059,515,1,-1,-193,-285
14.117,1682,-7920,-5286,1960,251,414,-4,-205,-286
14.129000000000001,2084,-8012,-4886,1591,88,467,-3,-193,-273
14.151,2438,-7586,-4432,1428,127,434,-4,-207,-274
14.172999999999998,2032,-7468,-3140,1331,-268,402,-6,-213,-276
14.184999999999999,1932,-7246,-2304,1360,76,330,-7,-220,-274
14.207000000000004,1836,-7136,-1738,1393,430,199,-10,-218,-271
14.218999999999998,1688,-7174,-1028,1543,585,75,-9,-222,-267
14.241000000000003,-240,-7568,-756,1816,236,188,-4,-235,-262
14.253000000000004,1258,-7854,-1140,2005,-230,360,-4,-230,-255
14.275000000000002,1198,-8362,-2272,1918,-367,295,-8,-246,-252
14.297,1326,-8484,-2318,1693,-346,246,-3,-254,-242
14.309000000000001,1604,-8382,-1816,1471,-327,120,0,-260,-227
14.331,1026,-8338,-848,1388,-274,12,6,-267,-225
14.343,1000,-8350,-198,1424,-332,27,12,-270,-231
14.364999999999998,804,-8666,-512,1499,-312,-17,16,-273,-224
14.376999999999999,512,-8618,-760,1401,-226,-44,-1,-289,-216
14.399000000000004,504,-8762,-1122,1313,-417,-32,13,-272,-204
14.411286,466,-8888,-1424,985,-355,116,4,-280,-198
14.433000000000003,618,-8886,-1096,781,-350,148,9,-283,-196
14.455000000000002,464,-8770,-1756,495,-787,372,14,-291,-198
14.467000000000002,1168,-8660,-1426,106,-1032,429,9,-291,-198
14.489,1118,-8410,-898,-233,-1127,359,16,-278,-198
14.501000000000001,1320,-8186,94,-572,-1329,271,12,-296,-191
14.523,1370,-8026,1260,-624,-602,-22,24,-280,-200
14.535,710,-8274,170,-360,-709,-92,19,-280,-203
14.556999999999999,818,-8372,252,-176,-1207,27,27,-287,-199
14.579000000000004,1020,-8408,20,-15,-1428,184,30,-284,-204
14.590999999999998,1238,-8364,-818,264,-2293,209,25,-287,-194
14.613000000000003,852,-8616,-476,343,-3201,216,38,-291,-198
14.625000000000004,774,-8562,-948,422,-3793,389,29,-288,-198
14.647000000000002,626,-8214,1210,577,-3955,122,42,-284,-190
14.659285,106,-8290,1290,1040,-4475,205,53,-288,-172
14.681000000000001,1286,-8106,566,1313,-4767,148,71,-284,-168
14.703,1652,-8004,818,1671,-4925,-145,75,-288,-164
14.715339000000004,162,-8774,-646,1362,-4819,-345,75,-296,-145
14.736999999999998,156,-8828,244,1264,-5212,-31,87,-280,-117
14.748999999999999,-560,-9068,-680,756,-4950,553,92,-298,-112
14.771000000000004,204,-8624,-296,119,-5361,1161,92,-296,-105
14.782999999999998,1570,-7972,1910,1,-5351,1177,104,-303,-95
14.809999999999999,2054,-7838,2310,438,-5045,651,104,-283,-78
14.822,452,-8182,928,674,-4441,280,111,-278,-66
14.843999999999998,62,-8724,112,428,-3816,10,115,-289,-53
14.855999999999998,-488,-8828,-364,503,-4276,323,115,-289,-39
14.878000000000004,446,-8688,-868,161,-5058,381,112,-284,-34
14.890000000000004,1222,-8338,1176,169,-6839,629,102,-284,-27
14.912000000000003,1364,-7930,1988,292,-7092,488,98,-277,-10
14.924000000000003,542,-8054,1676,537,-5113,694,104,-278,-4
14.946000000000002,-544,-8106,1228,56,-2535,693,81,-274,22
14.968,744,-8142,-474,-103,-2259,600,79,-275,19
14.98,508,-8702,-1068,-373,-2944,289,85,-272,27
15.001999999999999,700,-8600,-1306,-510,-5335,540,73,-274,27
15.014,1532,-8098,1376,-416,-5923,149,59,-279,34
15.035999999999998,-202,-8286,1836,-292,-5699,89,59,-277,46
15.047999999999998,-982,-8076,2392,185,-2572,166,44,-282,51
15.070000000000004,236,-8162,30,325,-1130,387,31,-278,54
15.082000000000004,1266,-8304,-630,74,-1388,97,35,-272,51
15.104000000000003,994,-8422,820,-91,-3378,-254,29,-275,69
15.126000000000001,20,-8694,1424,398,-3977,-411,16,-278,57
15.138000000000002,718,-8186,672,445,-4794,-159,18,-284,56
15.16,378,-8230,512,533,-3902,-271,-3,-279,63
15.172,474,-8136,238,475,-3182,-150,-8,-274,58
15.193999999999999,776,-8234,856,147,-1844,-134,-25,-277,63
15.206,494,-8846,-156,-190,-2000,-116,-25,-272,63
15.227999999999998,-486,-8886,-1482,134,-2741,-235,-35,-274,63
15.250000000000004,1380,-8108,604,-156,-3933,-27,-42,-269,77
15.262000000000004,930,-8312,700,-213,-4050,116,-52,-264,63
15.284000000000002,1236,-8008,582,-78,-3042,-47,-52,-272,58
15.296000000000003,1024,-7668,1006,-218,-1985,-40,-65,-270,47
15.318000000000001,984,-8176,-960,-241,-1086,-33,-73,-269,58
15.330000000000002,256,-8552,-48,-461,-1404,-41,-79,-268,43
15.352,870,-8294,908,-477,-2051,8,-73,-277,32
15.364284999999999,1376,-8390,-1424,-322,-2231,47,-79,-273,40
15.386,1478,-8220,1064,-361,-2544,-160,-81,-277,34
15.407999999999998,1126,-8400,-968,-457,-2952,-187,-81,-269,22
15.419999999999998,-464,-8696,706,-289,-1954,-244,-98,-277,27
15.442000000000004,418,-8148,562,-145,-816,-91,-89,-270,19
15.454000000000004,842,-8282,-1386,-86,-227,-40,-104,-275,21
15.476000000000003,1228,-7928,664,-407,-1214,-295,-96,-283,9
15.488000000000003,2094,-7640,214,-680,-1783,-737,-115,-272,8
15.510000000000002,508,-8362,-2376,-340,-1229,-1052,-119,-277,5
15.532,1168,-8294,286,-373,-2415,-959,-118,-265,9
15.544,-342,-8620,-146,56,-1442,-320,-124,-279,-5
15.565999999999999,860,-8114,-242,143,-558,-143,-133,-275,-4
15.578,994,-8302,-1094,123,54,-14,-130,-273,-4
15.599999999999998,1140,-8256,-904,44,-85,30,-140,-263,-9
15.611999999999998,1228,-8348,-354,156,30,101,-121,-280,-11
15.634000000000004,1134,-8346,-594,170,-21,76,-130,-273,-11
15.656000000000002,1342,-8078,-938,116,-241,58,-129,-274,-3
15.668000000000003,1264,-8306,-276,129,-131,-21,-128,-268,0
15.690000000000001,894,-8316,-136,207,280,-17,-136,-277,1
15.702000000000002,956,-8274,-434,215,718,-16,-127,-282,-3
15.724,1174,-8220,-1178,164,1228,23,-125,-255,2
15.736,1120,-8160,-664,62,1649,23,-125,-265,-14
15.758,1034,-8142,152,4,2588,74,-121,-268,-2
15.77,1104,-8484,400,-103,4131,222,-122,-272,5
15.791999999999998,2064,-8254,482,-27,4661,4,-122,-267,17
15.814000000000004,1882,-8348,1314,238,6337,-88,-102,-282,22
15.826000000000004,2632,-8108,-834,152,6590,-282,-94,-280,26
15.848000000000003,1606,-8014,864,70,6758,-479,-89,-275,43
15.860000000000003,2072,-8112,-186,-3,6920,-530,-66,-267,56
15.882000000000001,858,-8734,-910,-216,7338,-187,-48,-275,66
15.894000000000002,1516,-8306,-290,-448,6711,-274,-41,-270,71
15.916,614,-8644,326,-411,5451,-86,-27,-282,72
15.937999999999999,500,-8480,-252,-258,5513,70,-8,-282,77
15.95,472,-8448,2262,-397,5910,221,6,-274,65
15.971999999999998,1672,-8048,1212,-500,7386,304,15,-272,70
15.983999999999998,944,-8180,1618,-826,9537,216,36,-265,50
16.006000000000004,960,-8116,58,-1263,10729,183,70,-270,43
16.018000000000004,1562,-8338,1808,-1230,12302,216,87,-265,19
16.040000000000003,1056,-8402,688,-939,10805,-211,115,-284,-3
16.062,936,-8372,1382,-613,9810,-14,117,-277,-25
16.074,-876,-9198,-574,-518,10075,139,122,-287,-75
16.096,1546,-7814,-1878,-875,8094,363,128,-280,-90
16.108,-358,-8184,-112,-891,6766,-158,116,-278,-102
16.13,-200,-7864,1962,-575,5472,-94,115,-272,-125
16.142,760,-7742,958,-83,6665,-341,106,-275,-148
16.163999999999998,1518,-8282,4362,-146,12588,-459,87,-268,-162
16.186000000000003,2818,-8172,-1256,-217,12972,-582,84,-275,-176
16.198000000000004,704,-8842,-3280,-271,10861,-605,56,-277,-192
16.220000000000002,572,-8578,-1590,-357,6850,-472,14,-288,-203
16.232000000000003,44,-7894,-82,-477,5140,-329,-4,-288,-196
16.254,176,-7820,2544,103,6663,-434,-15,-284,-204
16.266000000000002,490,-7960,866,126,6987,-432,-27,-277,-209
16.288,1038,-8422,-2646,568,5251,-510,-43,-273,-200
16.31,1020,-8304,544,383,4041,-393,-71,-277,-197
16.322,936,-8260,150,404,3326,-497,-73,-279,-194
16.343999999999998,416,-8354,338,479,2556,-508,-79,-280,-181
16.355999999999998,632,-8436,1212,330,2735,-479,-93,-277,-170
16.378000000000004,2032,-8372,1482,622,4262,-751,-101,-283,-162
16.390000000000004,202,-8750,1016,590,3788,-834,-106,-278,-157
16.412000000000003,708,-8294,88,662,3568,-745,-105,-282,-151
16.424000000000003,126,-8472,316,485,2977,-388,-118,-280,-133
16.446,1274,-8314,962,389,2965,-393,-134,-274,-125
16.458292000000004,1416,-8434,3694,496,4658,-451,-123,-275,-126
16.48,1428,-8378,3448,908,5337,-783,-130,-286,-105
16.502,2118,-7932,2486,1007,5842,-691,-130,-275,-93
16.514,-118,-8910,-1046,1098,5778,-570,-135,-273,-69
16.535999999999998,498,-8206,1014,454,3502,-182,-140,-273,-54
16.548,1298,-8276,1556,362,2303,-166,-141,-279,-46
16.570000000000004,974,-8136,1908,261,1970,-198,-125,-270,-23
16.582000000000004,14,-7904,1798,251,1906,-192,-142,-273,-40
16.604000000000003,-826,-7936,3518,176,2955,-29,-136,-274,-8
16.626,102,-7872,3288,465,3364,96,-138,-268,-16
16.638,544,-7850,754,634,3840,134,-129,-264,-1
16.66,-176,-7966,1904,791,2298,310,-116,-270,16
16.672,-298,-7834,3350,645,1951,385,-128,-270,23
16.694,64,-7778,4196,888,3290,420,-117,-264,20
16.706,-42,-7638,3134,1264,4453,280,-105,-277,39
16.727999999999998,-358,-7664,1884,1174,4445,377,-102,-267,39
16.750000000000004,-1110,-8114,2098,753,4113,485,-92,-268,47
16.762000000000004,-768,-7746,3526,684,3226,660,-81,-259,72
16.784000000000002,-1874,-7812,3428,698,3571,686,-56,-246,70
16.800998000000003,-1334,-7760,2862,753,2982,676,-49,-254,80
16.813,-3426,-7766,4334,638,3866,623,-46,-258,83
16.835000000000004,-1402,-7072,3914,1099,4901,772,-27,-251,96
16.846999999999998,-3634,-7698,1754,801,4363,662,-3,-246,82
16.869000000000003,-3742,-7176,5162,708,5120,913,3,-251,101
16.891000000000002,-4400,-6496,3666,1359,6467,974,15,-236,106
16.903000000000002,-4954,-7074,2482,1558,7446,1270,43,-245,100
16.925,-3212,-6648,46,1283,7367,1207,84,-235,90
16.937,-3544,-6718,-728,801,6869,995,110,-218,89
16.959,-2914,-6234,-1416,544,5714,476,121,-222,62
16.971,-3760,-6252,-1608,324,3855,-67,129,-211,49
16.993,-5016,-6510,-832,277,1729,-324,148,-208,44
17.015000000000004,-7924,-7032,-410,219,2640,-50,150,-215,47
17.027000000000005,-5902,-6618,84,296,3596,504,165,-216,39
17.049000000000003,-5290,-6640,-1642,365,4114,545,170,-213,29
17.061000000000003,-5038,-6538,-1940,275,4524,575,175,-218,3
17.083000000000002,-3442,-6168,-998,376,4559,394,171,-207,-7
17.095000000000002,-3896,-6398,-2300,385,3938,141,187,-201,-20
17.117,-5368,-6528,-2906,365,3611,156,193,-199,-31
17.129,-4578,-6250,-3468,172,2869,258,208,-202,-45
17.151,-5786,-6494,-3046,-40,3135,396,199,-198,-63
17.173,-5096,-6516,-4014,-125,3175,712,198,-205,-66
17.185,-3622,-6176,-3758,-230,1958,664,193,-199,-81
17.207000000000004,-3140,-6250,-3148,-244,540,337,208,-194,-90
17.218999999999998,-4766,-6604,-2548,-256,855,374,208,-194,-102
17.241000000000003,-2498,-5866,-3462,-146,743,342,210,-192,-98
17.253000000000004,-3444,-5892,-3950,-67,1,-70,215,-192,-112
17.275000000000002,-3418,-5868,-4786,-49,-1330,-217,198,-194,-100
17.297,-3476,-5812,-2006,-162,-4094,-425,207,-201,-99
17.309,-3522,-5864,-5076,-97,-6176,-587,202,-191,-80
17.331,-2988,-5662,-2560,42,-10662,-822,202,-198,-70
17.343,-4510,-6688,-1040,84,-12781,-901,199,-206,-8
17.365,-6770,-6974,2654,106,-12445,-104,180,-201,22
17.377,-3444,-5942,2048,814,-12680,341,157,-212,47
17.399000000000004,-5278,-6500,2220,449,-11749,701,125,-212,81
17.421000000000003,-3292,-6204,3728,333,-10822,713,67,-205,124
17.433000000000003,-3046,-6178,8174,478,-7218,770,39,-196,127
17.455000000000002,-2670,-5692,5428,891,-4906,517,12,-194,138
17.467000000000002,-2060,-5932,4548,722,-4140,351,2,-179,136
17.489,-2826,-5750,4820,380,-3679,324,-31,-192,148
17.501,-2754,-5526,3602,386,-4465,530,-42,-188,127
17.523,-2416,-5346,5584,386,-5976,804,-53,-194,143
17.544999999999998,-504,-4738,6698,575,-6298,842,-71,-188,139
17.557,-272,-5380,7082,693,-5722,740,-101,-177,119
17.579000000000004,310,-5394,8332,766,-4505,693,-106,-179,112
17.590999999999998,570,-5500,6846,834,-1499,263,-128,-184,90
17.613000000000003,-4,-5434,6328,811,-1361,270,-138,-177,93
17.625000000000004,232,-5418,5780,940,-2244,477,-135,-187,98
17.647000000000002,864,-5262,5544,1030,-3107,580,-140,-177,90
17.659000000000002,1632,-5006,7102,1126,-3804,659,-142,-174,93
17.681,2596,-4784,6304,1154,-3296,543,-151,-178,82
17.703,2650,-4820,7558,975,-2711,244,-171,-164,66
17.715,3826,-3836,8444,877,-710,-148,-179,-174,62
17.737,234,-4344,8636,1231,142,-202,-171,-169,47
17.749,2894,-4454,7196,1403,302,-14,-174,-177,52
17.771000000000004,2478,-4516,7316,1372,-330,-46,-174,-159,69
17.782999999999998,3538,-4268,8760,1623,-326,-19,-180,-153,65
17.805000000000003,3758,-3906,8680,1830,-417,-211,-180,-155,75
17.817000000000004,3422,-3480,8504,2003,-796,-372,-186,-149,76
17.839000000000002,2294,-3328,8962,2207,-729,-367,-191,-144,64
17.861,1936,-3032,7916,2259,-510,-388,-193,-139,64
17.873,2560,-2476,8108,2287,-141,-211,-190,-122,65
17.895,3078,-2290,7202,2289,-205,-256,-178,-137,77
17.907,2932,-1988,6888,2101,-343,-260,-197,-112,75
17.929,2646,-1572,8478,2062,-155,-202,-190,-102,80
17.951000000000004,3480,-1554,7760,2193,53,-225,-197,-89,70
17.963000000000005,3182,-1336,6940,2127,22,-293,-202,-94,72
17.985000000000003,3020,-1010,6582,2023,-94,-233,-187,-79,77
17.997000000000003,2936,-734,7010,1786,169,-252,-186,-83,81
18.019000000000002,2708,-376,7028,1662,434,-258,-196,-63,81
18.031000000000002,2796,-308,6690,1602,592,-223,-196,-70,76
18.053,2088,110,7622,1489,519,-197,-187,-59,87
18.065,2514,424,7870,1578,515,-94,-180,-51,84
18.087,2872,486,6742,1507,176,-16,-181,-53,90
18.108999999999998,2432,722,7470,1275,294,-55,-184,-50,83
18.121,2662,1026,6560,1137,426,-92,-185,-36,87
18.143000000000004,1942,1394,7784,984,150,-30,-185,-49,89
18.154999999999998,2240,1756,8274,1138,257,67,-175,-36,84
18.177000000000003,2568,1782,7824,1097,346,78,-182,-36,82
18.189000000000004,2124,1870,6606,925,653,5,-174,-22,98
18.211000000000002,1808,1954,7032,660,538,108,-191,-22,88
18.223000000000003,2228,2128,7950,558,199,196,-171,-22,81
18.245,2404,2168,8022,545,-26,215,-175,-24,84
18.267,2694,2256,8184,483,63,163,-175,-26,92
18.279,2986,2154,7804,424,144,101,-173,-16,84
18.301,2232,2136,6958,219,-110,12,-185,-18,87
18.313,1664,2208,7000,42,-463,116,-175,-13,87
18.335000000000004,2080,2310,7252,-115,-743,176,-178,-18,87
18.346999999999998,2348,2294,8432,-221,-705,255,-175,-11,75
18.369000000000003,3120,2314,7748,-211,-1076,295,-184,-15,78
18.391000000000002,3016,2216,7496,-250,-1825,309,-186,-15,76
18.403000000000002,2904,2270,7088,-233,-3078,404,-193,-27,64
18.425,3698,2314,7608,-79,-4426,576,-190,-24,60
18.437,4730,2210,6980,64,-5037,616,-194,-29,39
18.459,5854,2230,7140,131,-4584,586,-209,-26,32
18.471,5146,2124,5048,197,-4646,479,-220,-25,0
18.493,6542,2230,5182,396,-5824,670,-230,-35,-23
18.515000000000004,7388,2254,4434,426,-6020,564,-239,-27,-31
18.527000000000005,7240,2194,3104,529,-7225,550,-233,-49,-63
18.549000000000003,7156,2144,1718,624,-8667,622,-236,-31,-101
18.561000000000003,7888,1904,1480,733,-9167,776,-240,-44,-139
18.583000000000002,8374,1860,-566,518,-7579,695,-219,-44,-170
18.595000000000002,8282,1794,-820,411,-7402,627,-204,-59,-194
18.617,8486,1868,-2522,557,-7373,381,-163,-64,-235
18.639,8426,2628,-3828,634,-7598,133,-162,-58,-265
18.651,6636,1224,-5866,884,-8151,-93,-131,-54,-290
18.673,7626,1586,-1754,683,-7214,-402,-110,-74,-288
18.685,4694,1154,-5892,447,-6521,-292,-67,-75,-306
18.707000000000004,3416,884,-7066,361,-5684,-110,-44,-79,-316
18.718999999999998,3254,1114,-7508,409,-6294,-159,-10,-77,-323
18.741000000000003,2954,1114,-7042,343,-6306,11,6,-79,-321
18.763,2682,1714,-8966,239,-6149,-548,53,-81,-317
18.775000000000002,-518,678,-3746,-156,-6875,-767,75,-83,-303
18.801998,1006,1194,-8000,-319,-2947,337,95,-67,-300
18.814000000000004,-1356,700,-6766,-429,-3143,288,116,-86,-294
18.826000000000004,-1208,1084,-6252,45,-3304,655,134,-79,-280
18.848000000000003,-1086,1346,-7952,87,-3282,685,144,-74,-264
18.860000000000003,-1470,1328,-7774,363,-4012,489,148,-77,-268
18.882,-2188,1614,-8432,553,-5292,50,159,-63,-255
18.904,-2016,1364,-8754,301,-5901,-290,193,-73,-217
18.916,-3292,1358,-7588,175,-6561,-531,203,-68,-210
18.938,-4592,1482,-6480,51,-6377,-627,211,-79,-190
18.95,-6346,836,-5922,-37,-6754,-663,222,-86,-169
18.971999999999998,-4762,798,-6146,-493,-10971,-1058,244,-91,-119
18.983999999999998,-4184,-90,-7860,-1241,-13861,-1311,234,-91,-78
19.006000000000004,-890,-1914,-10676,-3066,-20668,-1568,239,-88,-31
19.018000000000004,3882,-7206,-1638,-6581,-28036,-816,220,-101,31
19.040000000000003,5840,-6674,8102,-7477,-25314,1062,90,-127,161
19.062,2366,-5246,13536,-6409,-20598,3211,6,-155,163
19.074,5066,-6100,4500,-3677,-19456,5152,-64,-180,139
19.096,14988,-1286,15070,-3987,-22468,6603,-110,-196,99
19.108,3666,-6720,1386,90,-16476,5918,-161,-246,-3
19.13,16708,-3058,1854,1272,-17130,5803,-152,-263,-33
19.142,13176,-4936,2104,1020,-10846,2507,-141,-274,-87
19.163999999999998,8384,-4464,2648,441,-3399,214,-123,-275,-100
19.186000000000003,7118,-4274,662,-34,1774,-839,-116,-280,-117
19.198000000000004,8592,-4726,2674,-218,6512,-1426,-122,-284,-115
19.220000000000002,15892,-3192,-152,-312,15620,-3604,-118,-278,-105
19.232000000000003,2636,-4292,2870,-56,9806,-3304,-135,-278,-88
19.254,3500,-4362,5182,1113,6578,-1713,-141,-267,-41
19.266000000000002,6054,-3732,3928,1269,6550,-1225,-153,-259,-20
19.288,6110,-3640,6174,578,7196,-1353,-148,-251,-3
19.3,2986,-2744,6090,581,5279,-1559,-150,-253,14
19.322,2086,-2512,9018,554,4658,-1051,-136,-256,34
19.343999999999998,2014,-3092,7430,1091,4493,-657,-125,-243,50
19.355999999999998,2636,-2628,8524,857,4423,-525,-124,-241,68
19.378000000000004,2022,-3152,10476,853,6077,-584,-108,-220,74
19.390000000000004,-212,-2216,14060,1492,7537,-542,-98,-231,103
19.412000000000003,-256,-2352,6998,2843,6488,-127,-72,-230,107
19.424000000000003,-2394,-2238,2068,1871,3963,-85,-55,-210,133
19.446,-2334,-1626,3634,194,1493,273,-47,-208,132
19.468,-1566,-1648,8658,-358,879,229,-23,-206,139
19.48,-3036,-1564,12948,82,2349,57,-30,-201,123
19.502,-4974,-1810,11694,1324,5436,657,-19,-192,124
19.514,-5202,-1522,10044,2360,6638,1571,-4,-194,138
19.535999999999998,-3092,-556,5108,2369,6413,2020,41,-192,141
19.548,-4470,-1060,6480,1768,5840,1969,58,-174,138
19.570000000000004,-4710,-120,7598,1999,6245,2146,76,-165,132
19.592000000000002,-6306,814,6686,1994,6708,1863,122,-168,130
19.604000000000003,-8362,310,5618,2299,7218,2318,147,-134,114
19.626,-5792,656,2348,2285,6932,2937,167,-129,90
19.638,-3666,2064,1900,1780,7168,2412,179,-111,86
19.66,-5860,1528,2012,1755,8146,1808,197,-102,56
19.672,-7618,1830,270,1784,8403,2386,232,-88,11
19.694,-8536,2194,-1720,1846,7379,3163,231,-59,-20
19.706,-5470,3136,-1314,1766,7684,3377,236,-49,-41
19.727999999999998,-3066,3198,-3514,1710,8104,3285,242,-35,-74
19.750000000000004,-1720,3728,-4876,1275,8657,2415,221,-21,-135
19.762000000000004,714,3584,-5510,1176,6513,1932,221,-8,-170
19.784000000000002,70,4324,-5414,1740,5037,566,211,-6,-190
19.796000000000003,-3966,3468,-8510,1727,4871,675,190,-8,-199
19.818,-2006,3900,-9576,1120,4992,1234,174,-2,-234
19.830000000000002,-458,3592,-8300,569,3791,1295,151,-11,-252
19.852,-1190,3156,-6480,350,3292,1580,139,-13,-271
19.864,1162,3618,-7258,220,3238,1623,134,-8,-278
19.886,920,3714,-8524,-52,3023,1297,110,-1,-280
19.907999999999998,1592,3876,-8208,-432,2979,1233,99,-7,-272
19.919999999999998,2066,3478,-7846,-774,2479,989,79,-7,-291
19.942000000000004,1982,3498,-6034,-897,1651,939,90,3,-297
19.954000000000004,408,3576,-3362,-745,1420,1216,64,3,-297
19.976000000000003,-5396,1790,-904,-307,7647,2564,61,11,-297
19.998,-4346,-752,-1730,-1287,15929,6068,30,21,-302
20.01,7364,-1414,-1238,-2953,14258,8461,-2,17,-303
20.032,13710,124,5068,-2289,10852,7446,-129,8,-261
20.044,16022,784,9048,116,7736,5429,-151,3,-230
20.066,16150,794,6000,2529,6841,2906,-186,-20,-212
20.078,14252,-438,2966,3870,6967,1104,-213,-32,-186
20.099999999999998,11368,-426,-3908,3117,6604,188,-231,-46,-137
20.112,9120,406,-3374,489,5068,-271,-233,-64,-120
20.134000000000004,7402,560,2878,-1006,4806,-548,-237,-63,-100
20.156000000000002,-7290,-4820,4508,713,6929,2739,-248,-46,-87
20.168000000000003,7942,-1148,7380,3073,9868,3446,-243,-56,-27
20.19,13954,814,1606,2298,8374,2153,-232,-73,-2
20.202,7536,298,4720,780,6584,12,-220,-81,21
20.224,1226,-300,9036,649,7441,332,-213,-81,40
20.236,3738,934,9548,787,9356,539,-186,-81,90
20.258,1556,548,5828,737,8386,245,-165,-79,118
20.279999999999998,-1548,186,8828,379,9055,649,-133,-86,133
20.291999999999998,-1030,1008,6316,276,6225,933,-110,-82,135
20.314000000000004,-2440,1274,9654,197,5192,763,-50,-68,172
20.326000000000004,-2390,884,8300,-186,6084,663,-29,-73,174
20.348000000000003,-4718,760,8878,329,6375,478,-10,-82,173
20.360000000000003,-5270,400,8708,-134,10250,844,3,-79,182
20.382,-4118,1104,5592,594,10953,790,62,-65,164
20.404,-5344,900,2750,264,9510,558,100,-69,156
20.416,-5862,972,1222,181,8207,450,136,-59,130
20.438,-9498,1012,484,-69,5185,101,163,-59,108
20.45,-9756,356,3980,-65,8189,399,196,-53,76
20.471999999999998,-4834,1804,-2790,157,8836,787,202,-54,58
20.483999999999998,-6564,1490,-2138,-119,6693,102,219,-54,13
20.506000000000004,-7240,1434,-3032,-57,5163,264,232,-48,-7
20.518000000000004,-7416,1636,-3824,51,4935,358,238,-51,-44
20.540000000000003,-5764,1720,-5220,-225,3233,350,239,-50,-66
20.562,-7426,1382,-3190,-336,4312,353,250,-46,-80
20.574,-6152,1684,-3572,-269,6924,575,244,-48,-88
20.596,-1910,2204,-5178,-431,7578,191,221,-36,-137
20.608,-3078,2142,-6304,-100,7561,60,225,-48,-162
20.63,-3042,2090,-8300,-63,7575,-143,215,-45,-186
20.642,-1518,2240,-8022,-80,6472,-112,197,-41,-218
20.663999999999998,-1156,1868,-6730,-129,7664,-128,164,-43,-248
20.676,2326,1742,-4576,-294,12350,30,138,-35,-270
20.698000000000004,6470,2476,-6122,-418,16996,-426,118,-43,-291
20.720000000000002,5406,1278,-6748,-377,17631,-426,55,-30,-303
20.732000000000003,10100,2396,-6538,80,10673,-35,-58,-32,-308
20.754,6838,1734,-5554,1,6665,63,-99,-40,-291
20.766000000000002,8576,2072,-3760,302,5359,19,-128,-43,-279
20.788,8432,1800,-1070,-167,5181,-186,-141,-39,-259
20.804998,8116,2030,-692,-201,5566,-232,-155,-43,-241
20.827,7610,2150,1266,-134,5641,-182,-182,-41,-233
20.839000000000002,8048,2922,46,0,6180,-124,-187,-46,-213
20.861,7630,2404,1426,149,5240,103,-211,-36,-182
20.873,7096,2174,820,44,3478,361,-224,-24,-151
20.895,8730,2808,-170,-132,1301,221,-225,-53,-138
20.907,8802,2228,1682,-139,-974,-138,-227,-48,-129
20.929,8812,2252,3716,84,-845,-395,-230,-58,-126
20.941,7396,2302,3082,380,-1159,-543,-233,-41,-139
20.963000000000005,4516,1478,1136,254,-743,-130,-230,-40,-143
20.985000000000003,7190,2324,250,52,-1215,156,-225,-25,-143
20.997000000000003,7718,2424,34,-154,-2564,142,-219,-29,-149
21.019000000000002,8648,2638,26,-214,-4197,19,-214,-41,-173
21.031000000000002,7746,2082,454,-258,-4212,45,-216,-49,-190
21.053,6592,1858,-1514,-287,-5728,266,-207,-41,-199
21.065,9618,2596,-5644,-771,-10684,767,-198,-43,-205
21.087,9782,242,-10040,-1711,-20004,406,-145,-25,-267
21.108999999999998,13696,1292,-6232,-1117,-24695,1339,-93,-34,-304
21.121,9132,2440,-2844,-89,-21352,703,-16,-37,-320
21.143000000000004,2442,2634,-3190,227,-14134,-426,65,-40,-291
21.154999999999998,-3016,1836,-6770,-183,-11248,-290,173,-31,-237
21.177000000000003,-2618,2066,-6174,-231,-10574,-139,201,-27,-212
21.189000000000004,-3288,2362,-6452,-801,-9812,-7,216,-29,-175
21.211000000000002,-2656,2464,-6162,-777,-12296,-156,236,-21,-139
21.233,-9918,1258,870,-1078,-10118,-301,236,-34,-58
21.245,-7552,2470,2282,-754,-6440,511,230,-27,-11
21.267,-8516,2572,-144,-543,-3437,499,220,-30,0
21.279,-7620,2600,-622,-541,-2536,644,216,-26,27
21.301,-6036,2726,-618,-639,-2353,481,208,-20,47
21.313,-6812,2576,-378,-711,-2554,285,211,-18,49
21.335000000000004,-7580,2556,-154,-883,-3902,202,198,-17,54
21.346999999999998,-7732,2638,2130,-896,-4525,453,187,-21,77
21.369000000000003,-7546,2598,3522,-431,-4424,454,171,-32,98
21.391000000000002,-7184,2580,2288,-455,-3397,500,159,-27,102
21.403000000000002,-7686,2558,4250,-507,-1728,689,141,-36,123
21.425,-6560,3074,2052,-532,-1764,714,144,-21,132
21.437,-7036,2926,2362,-633,-2963,770,134,-34,137
21.459,-6652,3074,2504,-718,-5074,874,130,-27,138
21.471,-6454,2628,5878,-816,-4273,1031,115,-21,151
21.493,-5982,2510,2428,-1187,-3638,1364,89,-37,141
21.515000000000004,-3928,3230,7098,-1125,-3725,1293,54,-34,168
21.527000000000005,-4326,3244,7374,-723,-2940,1089,55,-43,164
21.549000000000003,-4624,3284,6594,-643,-2056,1147,32,-36,166
21.561000000000003,-4256,3766,7262,-626,-2219,1200,30,-46,175
21.583000000000002,-4034,3396,5708,-766,-1630,1398,16,-55,179
21.595000000000002,-2826,3102,6154,-971,-2556,1324,13,-44,168
21.617,-3088,2660,6538,-1162,-2830,1234,1,-51,175
21.639,-2844,2416,7522,-1338,-2302,1372,-24,-60,169
21.651,-2402,2288,9574,-1530,-2056,1506,-23,-62,173
21.673,-1968,2280,10324,-966,-1710,1609,-39,-77,168
21.685,-2286,2308,9488,-161,-1769,1636,-43,-73,164
21.707000000000004,-3410,2284,8420,211,-720,2041,-49,-69,158
21.718999999999998,-2304,2228,8972,542,179,2688,-56,-82,175
21.741000000000003,-696,2304,7304,606,380,2779,-61,-77,170
21.753000000000004,416,2372,7184,568,436,2716,-41,-78,167
21.775000000000002,-102,2444,6638,364,-493,2593,-50,-63,164
21.797,-676,2302,8414,303,-161,2677,-53,-93,167
21.809,542,2196,7514,427,413,2928,-54,-87,170
21.831,1738,2458,6854,243,177,2750,-53,-88,160
21.843,1522,3080,6984,198,1093,2486,-55,-83,167
21.865,424,3468,7144,104,1377,2375,-41,-93,162
21.877,-1442,3234,7084,-1,1758,2482,-50,-91,172
21.899000000000004,-1316,3194,6868,-129,2701,2823,-21,-93,169
21.910999999999998,-1398,2856,7310,-487,2470,3001,-18,-99,178
21.933000000000003,208,2942,7074,-610,2005,3038,-7,-108,167
21.955000000000002,-614,3064,8568,-820,2344,2546,7,-98,174
21.967000000000002,-2002,2550,6974,-853,2826,2703,15,-102,170
21.989,98,3000,5878,-1223,1879,2665,20,-112,166
22.001,-1566,2860,8064,-1395,1890,2331,32,-110,168
22.023,-484,2708,8284,-1349,1908,2424,42,-112,163
22.035,-1270,1848,2062,-1425,1917,1717,58,-113,155
22.057,-638,2098,8044,-1895,911,1731,72,-129,153
22.079000000000004,-1162,1630,9594,-1555,1231,1547,76,-125,154
22.090999999999998,-888,1386,6640,-1484,1355,1470,93,-130,147
22.113000000000003,530,1324,8518,-1728,276,1147,87,-134,148
22.125000000000004,-478,1138,8230,-1406,-266,727,92,-136,143
22.147000000000002,-1322,676,8880,-1482,-336,701,92,-136,138
22.159000000000002,-720,618,9598,-1205,-265,569,84,-144,131
22.181,-1772,236,9012,-1012,510,643,89,-156,136
22.203,710,788,7692,-847,506,582,94,-154,129
22.215,-1968,384,8476,-908,248,155,108,-156,119
22.237,-2156,300,8048,-794,253,472,106,-146,133
22.249,-1450,192,8190,-796,40,473,98,-165,118
22.271000000000004,-1236,34,8676,-717,13,399,102,-163,118
22.282999999999998,-1128,-88,8846,-579,-64,259,101,-164,121
22.305000000000003,-1746,-170,8446,-384,-115,167,100,-158,118
22.327,-2386,-148,7630,-359,-53,173,116,-174,112
22.339000000000002,-2546,-2,7944,-390,-144,287,99,-162,121
22.361,-1822,-138,8666,-334,81,420,102,-170,115
22.373,-358,-110,8040,-256,-48,290,90,-165,120
22.395,-484,-72,8090,-270,-437,-46,107,-178,120
22.407,-1232,-270,8774,-180,-821,-133,98,-168,113
22.429,-948,130,8094,-22,-1520,-238,96,-159,126
22.441,-1592,116,7978,-9,-2217,-254,90,-163,130
22.463000000000005,-414,218,7562,-165,-2760,-145,90,-175,118
22.485000000000003,-132,-130,9166,-240,-2661,-151,77,-174,129
22.497000000000003,634,-356,8286,-155,-2850,-25,72,-177,141
22.519000000000002,2224,-510,8124,-106,-4014,-226,52,-178,142
22.531000000000002,3980,-614,7126,-197,-6637,-558,41,-174,133
22.553,5408,-452,8092,-199,-9191,-1038,32,-178,135
22.565,4194,-70,3422,-631,-10092,-1027,-32,-175,142
22.587,6810,-470,4218,-1358,-11693,-466,-55,-177,126
22.608999999999998,7986,-492,4606,-1643,-10601,-336,-98,-168,120
22.621,8086,-646,5250,-1829,-9013,-139,-122,-180,101
22.643000000000004,8732,-292,6098,-1476,-6061,-22,-164,-184,52
22.654999999999998,9398,-404,2798,-924,-4642,-97,-175,-186,34
22.677000000000003,8414,-824,-690,-1042,-5728,-103,-196,-192,11
22.689000000000004,7662,-948,-1156,-1395,-7573,310,-182,-188,-1
22.711000000000002,7452,-1162,-2738,-1486,-8834,888,-194,-193,-49
22.723000000000003,8780,-536,-1570,-1579,-9554,1420,-202,-198,-75
22.745,9644,-170,-266,-1196,-4838,912,-192,-198,-103
22.767,7708,-760,-3648,-537,-2778,334,-194,-208,-130
22.779,6476,-674,-4668,-559,-3622,454,-188,-205,-157
22.805998,6304,-646,-3540,-209,-3874,644,-165,-208,-163
22.818,5316,-866,-4690,328,-4902,827,-152,-215,-174
22.830000000000002,6154,-720,-4740,598,-3998,934,-158,-213,-190
22.852,6214,-966,-6020,689,-2285,297,-139,-211,-199
22.864,4102,-1612,-7458,302,-2403,93,-127,-231,-199
22.886,2734,-2154,-8754,342,-4089,346,-125,-225,-203
22.907999999999998,1676,-2276,-8150,798,-6905,1310,-122,-218,-221
22.919999999999998,2630,-1592,-6856,865,-7424,1863,-90,-231,-216
22.942000000000004,3250,-1466,-8258,558,-4190,1472,-71,-234,-240
22.954000000000004,1842,-1998,-6964,565,-3050,948,-50,-237,-246
22.976000000000003,1364,-1810,-10162,98,-2677,528,-52,-239,-242
22.998,-1568,-2538,-8356,667,-4948,569,-21,-248,-239
23.01,-4432,-3114,-9276,858,-8519,1687,-2,-253,-243
23.032,-3260,-2442,-4588,1247,-6332,2812,14,-248,-236
23.044,-1996,-1984,-8564,1373,-3433,2747,31,-258,-241
23.066,280,-1162,-7426,1079,-3408,1954,78,-254,-218
23.078,-630,-1196,-9260,-67,166,171,88,-249,-213
23.099999999999998,-4918,-2308,-8668,-641,-1966,-364,88,-249,-218
23.112,-5986,-2366,-5854,34,-4291,310,96,-253,-212
23.134000000000004,-5848,-1986,-6404,128,-5106,743,111,-258,-193
23.156000000000002,-5552,-2180,-4632,-84,-4340,755,108,-235,-193
23.168000000000003,-4436,-1318,-5992,-619,-2618,181,128,-253,-179
23.19,-6282,-2292,-4546,-791,-1693,-221,136,-241,-166
23.202,-6482,-2042,-4958,-758,-1141,-55,134,-239,-175
23.224,-6304,-1458,-4436,-861,-1429,-132,148,-246,-166
23.236,-6410,-1688,-3858,-613,-1982,-253,134,-241,-166
23.258,-7616,-2084,-4846,-411,-2967,-61,146,-239,-166
23.27,-7480,-1974,-4202,-322,-4006,176,155,-235,-160
23.291999999999998,-7318,-1768,-3638,-279,-3551,246,145,-237,-160
23.314000000000004,-6844,-1374,-2456,-570,-1066,-27,156,-231,-149
23.326000000000004,-8222,-1638,-3596,-584,-1887,-33,157,-240,-141
23.348000000000003,-7700,-1520,-2672,-227,-3748,244,155,-227,-126
23.360000000000003,-7816,-1344,-2996,-102,-5239,469,167,-237,-117
23.382,-8144,-1568,-728,-117,-4157,449,174,-217,-114
23.404,-8888,-1764,-484,-282,-3251,433,173,-226,-89
23.416,-8284,-1336,138,-419,-737,455,180,-244,-84
23.438,-7740,-1100,-256,-440,-446,293,179,-235,-74
23.45,-7090,-648,2014,-132,-3650,435,179,-230,-81
23.471999999999998,-7334,-954,-1128,-232,-3320,257,182,-218,-75
23.483999999999998,-9430,-1694,2314,14,-4827,477,187,-226,-51
23.506000000000004,-8514,-1082,3092,220,-4092,797,178,-221,-41
23.518000000000004,-7270,-610,2644,-26,-1328,620,170,-224,-44
23.540000000000003,-7038,-426,2322,-347,520,251,173,-208,-13
23.552285,-6758,-208,2098,-398,-134,236,180,-211,-25
23.574,-7160,-492,2444,-433,-591,-80,176,-210,-19
23.596,-8920,-1144,3632,-342,-812,0,181,-217,-21
23.608,-8766,-1084,3618,-55,-514,253,181,-215,-23
23.63,-8140,-726,2552,32,-169,358,182,-211,-20
23.642,-7022,-200,2286,-28,-86,319,187,-218,-5
23.663999999999998,-7734,-482,2302,-164,266,152,174,-207,-26
23.676,-7990,-570,3146,-241,286,140,173,-211,-20
23.698000000000004,-7836,-462,2948,-109,656,95,170,-206,-22
23.720000000000002,-8408,-456,3458,-187,1440,-15,184,-215,-19
23.732000000000003,-8482,-302,4360,-168,3706,-125,181,-210,-28
23.754,-7654,-516,5870,-221,12440,-461,194,-206,-27
23.766000000000002,-2056,-816,1328,-643,20935,-827,192,-216,-87
23.788,-3860,-1548,-9286,-457,18318,-1559,176,-202,-131
23.81,-5814,-2284,-7452,-48,11939,-697,134,-206,-197
23.822,-2304,-1296,-10748,-568,11724,-334,105,-216,-230
23.843999999999998,-1234,-186,-9450,-1214,8858,-545,44,-213,-268
23.855999999999998,1084,1024,-6220,-1445,10270,-946,18,-213,-271
23.878000000000004,762,788,-6792,-936,7745,-1282,-3,-211,-268
23.890000000000004,594,120,-5566,-197,7661,-872,-41,-215,-267
23.912000000000003,2848,238,-6408,554,8379,-263,-84,-207,-253
23.924000000000003,4150,-440,-8862,710,4485,82,-106,-207,-253
23.946,5198,-422,-8646,-40,5884,51,-119,-221,-228
23.958000000000002,6162,62,-1602,-330,9716,-84,-124,-201,-213
23.98,7636,-312,774,340,14211,18,-153,-221,-185
24.002,9738,-1378,-2722,1290,15945,627,-169,-212,-145
24.014,12498,-284,-8066,881,9701,745,-187,-218,-111
24.035999999999998,10362,-666,-4086,-996,4872,-397,-193,-215,-66
24.048,6912,-676,3712,-1056,4537,-497,-178,-224,-20
24.070000000000004,7580,178,3526,-568,6053,-115,-188,-215,-14
24.092000000000002,5290,-374,3272,-586,8443,80,-180,-229,8
24.104000000000003,8506,-484,4000,-421,7386,529,-161,-213,17
24.126,9014,-692,3984,-336,5059,66,-146,-224,44
24.138,6242,-1006,4662,-309,3286,-349,-123,-217,54
24.16,5438,-1014,7122,-344,3732,-286,-133,-215,76
24.172,3722,-1106,9114,-179,5975,-95,-123,-217,78
24.194,3044,-1424,7926,-95,8802,490,-89,-220,93
24.206,4830,-1046,6904,-79,7632,819,-82,-227,102
24.227999999999998,3726,-910,7114,-38,5561,249,-56,-229,106
24.250000000000004,2502,-1210,7856,-216,4626,61,-35,-218,108
24.262000000000004,-132,-1616,9490,-180,5546,-24,1,-229,113
24.284000000000002,-1258,-1846,10772,-253,8511,313,9,-225,121
24.296000000000003,-1874,-1518,7658,-643,11578,700,29,-230,105
24.318,-2534,-1286,8304,-567,10291,1071,52,-218,99
24.330000000000002,-1826,-552,6940,-243,7026,881,123,-232,76
24.352,-3502,-516,6256,-63,6034,53,123,-212,54
24.374,-6588,-1270,6200,-189,5726,29,145,-217,43
24.386,-8448,-1422,5588,-424,7977,586,158,-221,22
24.407999999999998,-8894,-1522,4586,-717,10567,1404,173,-206,-10
24.419999999999998,-6698,-880,3616,-586,10456,1725,181,-220,-33
24.442000000000004,-5240,-18,1132,-313,7841,1112,185,-201,-75
24.454000000000004,-6914,-170,-594,2,6010,453,186,-197,-107
24.476000000000003,-7284,-104,-786,-48,6718,330,194,-191,-147
24.488000000000003,-7962,-672,-1666,-200,8546,472,180,-193,-158
24.51,-7202,-642,-3716,-274,10874,923,173,-206,-182
24.532,-4208,-190,-5040,-106,9067,934,148,-206,-213
24.544,-3982,114,-6402,92,7617,386,111,-182,-246
24.566,-4180,-50,-6576,189,6267,542,94,-197,-251
24.578,-2160,452,-6292,188,6085,512,70,-192,-274
24.599999999999998,-1728,338,-6934,194,7454,246,59,-198,-273
24.612,-1054,116,-7474,334,7607,254,19,-194,-284
24.634000000000004,140,-250,-8138,445,7093,259,-2,-189,-277
24.656000000000002,1202,-16,-8656,493,6157,274,-30,-211,-276
24.668000000000003,1804,-306,-8722,444,5327,243,-49,-201,-285
24.69,2768,-328,-9298,310,4203,171,-82,-202,-272
24.702,3248,-150,-8550,95,2611,47,-96,-212,-251
24.724,3134,-334,-10174,-104,1088,-101,-95,-206,-256
24.736,3234,-608,-10002,-501,-1308,-65,-104,-205,-246
24.758,2840,-180,-10052,-922,-2978,-19,-99,-202,-246
24.77,2748,504,-10316,-1112,-5789,98,-99,-207,-253
24.791999999999998,2954,908,-12346,-1428,-11159,2,-73,-203,-271
24.808998,3038,276,-15612,-2267,-19622,137,-59,-196,-283
24.831,3500,-1750,-2514,-2822,-24734,914,46,-189,-289
24.843,234,1290,5080,-326,-20653,599,112,-173,-259
24.865,-1778,2166,3444,2505,-21132,-679,168,-183,-206
24.877,-7192,456,-906,1725,-19328,-1270,198,-172,-143
24.899000000000004,-4132,548,10168,1059,-18243,-1063,208,-182,-11
24.921000000000003,-4542,340,7914,1627,-14394,-1520,169,-164,47
24.933000000000003,-3060,900,11798,2187,-14360,-903,142,-184,88
24.955000000000002,1936,1504,6346,1793,-12187,-1636,106,-169,114
24.967000000000002,3376,1264,9030,1010,-11766,-2337,19,-167,153
24.989,2148,598,8504,490,-9509,-2806,-27,-155,158
25.001,2628,1288,8434,161,-8907,-2740,-53,-141,155
25.023,1648,1324,8350,-182,-7190,-2378,-88,-150,137
25.044999999999998,4146,1690,7228,-467,-6170,-1786,-129,-145,106
25.057,6162,1936,5184,-838,-5427,-1866,-162,-141,107
25.079000000000004,6694,2016,5310,-1154,-4370,-2008,-169,-131,86
25.090999999999998,6806,2080,4980,-1507,-3335,-2267,-184,-144,74
25.113000000000003,6384,1920,5248,-1834,-3639,-2441,-211,-122,49
25.125000000000004,5252,2404,6170,-1666,-2779,-2133,-214,-127,34
25.147000000000002,7988,2816,2134,-1777,-1835,-1934,-219,-117,17
25.159000000000002,9876,2604,330,-2549,-2380,-2342,-214,-112,10
25.181,8730,2268,766,-3232,-3122,-2545,-225,-106,-14
25.203,8566,2008,3510,-3794,-3043,-2483,-234,-98,-19
25.215,8146,2454,3938,-3832,-2568,-2429,-230,-96,-35
25.237,8546,2874,3966,-4091,-1961,-2490,-234,-83,-35
25.249,7190,3058,6294,-3951,-1419,-2350,-240,-77,-56
25.271000000000004,6364,3304,6800,-3358,-21,-2012,-248,-62,-60
25.282999999999998,6784,2900,5528,-2914,989,-1515,-249,-50,-62
25.305000000000003,8850,2814,3190,-2835,256,-1417,-245,-54,-63
25.317000000000004,10356,1816,5432,-3038,-890,-1819,-234,-43,-54
25.339000000000002,8416,1230,5740,-2765,-1193,-2268,-239,-30,-40
25.361,7346,1116,5602,-2557,-2123,-2318,-227,-25,-59
25.373,8580,1788,3822,-2453,-2319,-2520,-242,-25,-66
25.395,7810,1734,1598,-2651,-2832,-2448,-224,3,-77
25.407,5932,1324,4298,-3006,-3877,-2445,-217,15,-78
25.429,5920,1454,6248,-2610,-3686,-1958,-219,24,-92
25.441,7656,1658,5150,-2212,-2827,-1722,-213,27,-93
25.463000000000005,8578,2188,1824,-2017,-2302,-1989,-208,50,-102
25.485000000000003,8872,2064,-690,-2462,-3092,-2147,-191,63,-119
25.497000000000003,7896,1860,-450,-3107,-3922,-2351,-194,64,-123
25.519000000000002,7016,1456,3306,-3381,-4888,-2147,-186,70,-129
25.531000000000002,6510,1376,5190,-3085,-3689,-1690,-167,78,-129
25.553,8834,2484,2990,-2555,-1712,-1723,-162,91,-136
25.565,8704,2634,-2872,-2864,-1905,-2227,-158,97,-125
25.587,6136,1348,3026,-3479,-3814,-2147,-146,112,-130
25.599285,2922,2218,5270,-3322,-3019,-2146,-136,115,-127
25.621,4964,2268,5444,-2270,-1987,-688,-127,132,-120
25.643000000000004,8848,4250,-916,-2138,-2710,-1224,-111,139,-121
25.654999999999998,7036,2742,688,-3190,-4329,-1527,-111,141,-121
25.677000000000003,5586,3090,4440,-3223,-3356,-1477,-102,145,-106
25.689000000000004,3148,4322,1784,-2552,-2112,-1190,-85,145,-111
25.711000000000002,-444,4448,1728,-2528,-1945,-136,-85,155,-101
25.723000000000003,4446,4850,1192,-2078,-1870,977,-76,155,-89
25.745,6656,3244,-386,-2068,-2534,892,-78,150,-89
25.767,6972,2672,3518,-2397,-3028,540,-84,159,-83
25.779,5076,4656,1940,-1792,-2074,994,-87,154,-64
25.801,504,3930,2644,-1386,-1300,1977,-88,148,-68
25.813,5126,3292,688,-1022,-573,2636,-104,146,-69
25.835000000000004,7664,2514,1422,-797,-959,2693,-111,139,-66
25.846999999999998,9320,2102,-1224,-870,-1023,2160,-124,135,-72
25.869000000000003,8142,2158,456,-1057,-1430,2075,-119,127,-70
25.891000000000002,2616,1600,1036,-1141,-1720,2263,-131,117,-68
25.903000000000002,2112,1154,3392,-679,-485,3355,-150,116,-66
25.925,7960,420,3390,208,-23,3992,-147,113,-69
25.937,12622,-1200,-2472,278,-301,3395,-151,107,-58
25.959,10510,-342,-2602,-912,-411,2616,-173,87,-75
25.971,3204,-1934,-4090,-1628,-1194,2529,-181,75,-76
25.993,1906,-1348,7972,-1155,-640,3949,-186,60,-66
26.005,2408,-3426,6156,683,599,4968,-199,59,-72
26.027000000000005,11468,-4622,4970,2275,1503,5461,-204,26,-75
26.049000000000003,15922,-5182,-3170,1561,1480,4521,-214,1,-75
26.061000000000003,11720,-3942,-3986,-441,256,2836,-225,-10,-66
26.083000000000002,5214,-3902,2896,-725,258,2916,-224,-16,-53
26.095000000000002,2222,-4504,6194,468,1140,3641,-227,-37,-57
26.117,6184,-6356,6638,1847,1958,4503,-227,-60,-64
26.139,10184,-4940,14650,2576,1240,4424,-232,-73,-45
26.151,14306,-6560,1610,2170,1531,3492,-228,-94,-51
26.173,4290,-6786,1088,1256,497,2629,-225,-108,-40
26.185,2656,-5996,5542,1485,585,3195,-226,-127,-37
26.207000000000004,434,-6658,7840,2395,1732,4039,-220,-139,-33
26.218999999999998,4132,-8174,5142,3890,3063,5793,-217,-149,-26
26.241000000000003,4816,-10030,1640,3392,1907,5392,-202,-173,1
26.253000000000004,7874,-9572,5420,2538,1427,4867,-194,-183,13
26.275000000000002,8362,-9040,6314,2433,661,3636,-187,-191,25
26.297,5518,-8212,6836,2293,456,2710,-171,-202,28
26.309,3538,-7962,6240,2501,227,2259,-167,-210,45
26.331,3702,-7650,6342,2956,-237,2191,-159,-215,43
26.343,2100,-7808,7232,3099,-786,1521,-159,-210,57
26.365,6780,-5896,3758,3183,-1330,1024,-153,-203,58
26.377,7216,-5934,6594,2905,-1757,135,-155,-199,62
26.399000000000004,6208,-4816,6480,2902,-3673,-1211,-169,-205,59
26.410999999999998,4956,-5008,5122,2614,-4598,-1869,-158,-193,60
26.433000000000003,5372,-5168,9012,2053,-5690,-2316,-173,-175,56
26.455000000000002,5202,-5346,10698,2458,-4408,-2557,-205,-156,38
26.467000000000002,5374,-5450,7790,3124,-3672,-2352,-210,-146,14
26.489,8368,-4150,3652,3066,-1977,-2963,-215,-134,11
26.501,10736,-3340,2400,1538,-4157,-4276,-220,-111,14
26.523,7782,-5764,7738,781,-5299,-4641,-245,-84,-13
26.535,9186,-5460,7128,1726,-5038,-4055,-253,-69,-25
26.557,12722,-4018,5138,1138,-4793,-5344,-244,-55,-40
26.579000000000004,7662,-5830,4668,283,-1711,-7058,-237,-45,-66
26.590999999999998,3578,-5402,2902,696,-1515,-6271,-221,3,-92
26.613000000000003,3024,-2992,764,106,-3430,-5574,-211,16,-101
26.625000000000004,4058,-1054,1426,-1318,-3984,-4856,-204,62,-101
26.647000000000002,7954,-688,4294,-2062,-1711,-4312,-188,68,-117
26.659000000000002,9196,1012,2698,-1855,-1971,-4640,-162,93,-126
26.681,4050,1600,4332,-1602,-2313,-4704,-152,103,-119
26.703,3728,2410,4220,-1136,-451,-3497,-134,122,-125
26.715,6396,4618,2074,-1308,-246,-3278,-129,130,-127
26.737,3578,4642,4248,-1607,-970,-3226,-106,151,-107
26.749,4182,5772,2994,-1324,-1286,-2518,-92,146,-107
26.771000000000004,3044,6448,3114,-1857,-2017,-2360,-75,162,-109
26.782999999999998,1472,7084,5826,-1437,-2761,-1607,-65,149,-107
26.809998000000004,2976,6866,5452,-1026,-2331,-655,-59,160,-99
26.822,5550,8322,5106,-452,-2597,-552,-46,159,-83
26.843999999999998,3134,8220,5442,-176,-3013,-445,-48,164,-102
26.855999999999998,2778,8346,4288,253,-3545,111,-54,155,-101
26.878000000000004,2638,8686,3502,562,-3427,496,-48,167,-105
26.890000000000004,1790,8754,4690,847,-3525,796,-32,163,-101
26.912000000000003,2014,8606,4548,1658,-3200,1336,-43,156,-100
26.924000000000003,1568,7774,3198,2200,-2658,1693,-42,160,-118
26.946,88,7004,2208,2414,-2208,1996,-48,164,-129
26.968,-2484,6886,1698,2548,-2129,2845,-50,149,-145
26.98,-4048,4374,3552,2898,-1313,4263,-49,135,-158
27.002,-124,2150,-3016,3907,-1159,5308,-69,155,-168
27.014,2408,-994,-8974,3135,-2934,6154,-92,126,-188
27.035999999999998,4798,218,-5806,2169,-7483,5931,-108,101,-205
27.048,-764,-3480,-1578,3917,-12006,6436,-98,87,-230
27.070000000000004,8822,1404,-7454,3363,-4400,4957,-84,68,-246
27.092000000000002,810,-3604,2062,3504,-2083,3296,-65,27,-286
27.104000000000003,4470,-5670,-5890,4401,2689,3861,-62,15,-279
27.126,7620,-4442,-8110,2617,563,3202,-84,-5,-286
27.138,3584,-3550,2364,2585,-2123,2475,-93,-16,-288
27.16,2768,-4028,3308,3885,-175,2529,-73,-46,-304
27.172,4156,-6534,1542,5229,2944,2555,-85,-62,-300
27.194,6534,-8052,-5224,5199,4252,2602,-93,-84,-302
27.206,6418,-7860,-6458,3837,3429,2453,-101,-108,-289
27.227999999999998,6932,-7110,-1446,3027,1365,2246,-119,-137,-264
27.250000000000004,5442,-6810,2616,3382,950,1656,-124,-160,-271
27.262000000000004,3838,-8338,2028,4212,1553,1857,-122,-173,-254
27.284000000000002,5316,-9450,1352,4508,1998,2169,-130,-189,-248
27.296000000000003,7938,-11418,-2516,4999,4786,2418,-121,-215,-219
27.318,10936,-10272,-4582,3086,4231,1582,-130,-237,-207
27.330000000000002,10796,-9076,3490,2515,2140,406,-125,-248,-196
27.352,8646,-9108,2146,3002,2472,-166,-134,-254,-178
27.374,6816,-9274,2116,2746,2244,-518,-140,-263,-153
27.386,7014,-8962,1842,2973,1714,-637,-147,-268,-157
27.407999999999998,7458,-8512,306,2585,1548,-862,-150,-270,-133
27.419999999999998,7584,-7164,1148,1867,-516,-1309,-152,-263,-121
27.442000000000004,8016,-7158,3392,1652,-1377,-1850,-150,-265,-105
27.454000000000004,6626,-6904,3934,1598,-1660,-2311,-162,-255,-109
27.476000000000003,7004,-6508,4184,1659,-1662,-2459,-175,-256,-101
27.488000000000003,7068,-6044,2694,1630,-1617,-2582,-178,-239,-106
27.51,8070,-5400,3268,1088,-2729,-2641,-181,-235,-93
27.532,11288,-4970,6264,695,-1457,-3045,-192,-231,-106
27.544,11962,-4800,5280,1018,-1502,-3744,-190,-211,-111
27.566,8828,-5582,-370,1045,-341,-4173,-202,-193,-130
27.578,6828,-4976,1570,21,-3426,-3848,-220,-194,-117
27.599999999999998,7012,-4752,7228,26,-2800,-3080,-211,-180,-123
27.612,11434,-5484,6608,1383,-544,-2704,-221,-165,-135
27.634000000000004,11326,-6280,-848,1269,324,-3225,-217,-151,-138
27.646285000000002,11364,-7192,-3784,-107,1450,-3666,-239,-141,-136
27.668000000000003,10510,-6950,-3184,-1349,1101,-4428,-238,-125,-139
27.69,10254,-6638,-2864,-1701,1868,-4863,-242,-93,-131
27.702,11804,-6710,-2032,-1965,1802,-5496,-238,-79,-125
27.724,8528,-7090,-280,-1855,681,-6019,-250,-34,-108
27.736,7148,-6070,104,-2218,-318,-5906,-244,-20,-105
27.758,4750,-4346,314,-2998,-811,-6000,-231,16,-96
27.77,2558,-3536,4026,-3513,-1657,-5480,-224,31,-103
27.791999999999998,1672,-702,698,-2746,-376,-5078,-202,87,-103
27.814000000000004,-4514,-1220,-3062,-3153,-794,-2779,-186,91,-88
27.826000000000004,-1014,-976,1532,-5191,-3548,-1291,-165,105,-87
27.848000000000003,2460,-886,12978,-4554,-2374,-631,-174,93,-76
27.860000000000003,968,-628,8242,-3915,958,-912,-161,107,-60
27.882,1058,334,4598,-4480,3495,-719,-164,111,-64
27.894000000000002,2456,400,8356,-4568,1775,-655,-168,115,-41
27.916,1616,196,8430,-4029,2030,-990,-162,111,-19
27.938,-1580,-58,7436,-3582,3237,-177,-151,105,10
27.95,602,-26,9848,-3404,3266,952,-140,98,28
27.971999999999998,4600,550,4960,-3190,2881,1134,-136,92,37
27.983999999999998,4670,-940,8148,-3508,921,668,-129,79,58
28.006000000000004,1798,-1290,9090,-3164,679,494,-146,67,75
28.018000000000004,4118,-1342,7120,-2638,1139,973,-134,54,80
28.040000000000003,5770,-274,4884,-3023,-249,542,-139,49,101
28.062,6246,-1540,9862,-2648,-596,1216,-146,36,92
28.074,6134,-2816,11436,-2112,-537,775,-146,21,99
28.096,5688,-2658,8150,-1578,-359,558,-156,16,103
28.108,3582,-2714,5704,-2168,38,551,-153,11,106
28.13,3320,-2514,6294,-2105,1227,977,-151,3,106
28.142,3500,-3458,5672,-2699,1004,1114,-150,-12,112
28.163999999999998,6630,-4190,10246,-2204,1209,1135,-145,-20,119
28.186000000000003,6274,-3890,5932,-2163,619,533,-152,-32,126
28.198000000000004,4844,-4060,3100,-2519,81,116,-150,-43,131
28.220000000000002,1266,-4738,6256,-2991,-83,354,-147,-55,129
28.232000000000003,3092,-5822,8720,-2895,301,1034,-146,-64,132
28.254,7484,-6410,11008,-2065,-55,1137,-144,-77,127
28.266000000000002,11542,-6272,7466,-1401,-1518,-105,-142,-93,129
28.288,9630,-6648,7106,-1747,-2811,-1427,-151,-110,125
28.3,7998,-6836,6672,-1627,-3781,-1967,-152,-111,114
28.322,8206,-6638,6622,-1613,-5612,-2161,-164,-93,100
28.343999999999998,10648,-6310,8934,-1101,-8073,-2051,-174,-101,86
28.355999999999998,12488,-6050,8870,-532,-8592,-2248,-207,-84,56
28.378000000000004,13534,-6244,8786,-186,-5703,-2783,-222,-78,19
28.390000000000004,13132,-7288,6352,311,-2271,-3791,-228,-79,-17
28.412000000000003,10078,-7654,3084,876,-3417,-4788,-225,-63,-23
28.424000000000003,6008,-7354,3460,135,-5363,-4809,-227,-27,-43
28.446,8740,-5358,8244,-248,-5152,-4386,-219,-13,-70
28.458000000000002,8160,-4492,5468,737,-4420,-4363,-209,6,-77
28.48,7758,-3216,-1054,392,-3801,-4203,-220,17,-98
28.502,6450,-1694,638,-683,-4236,-4185,-205,45,-121
28.514,3500,-194,4652,-318,-2989,-3675,-182,46,-142
28.535999999999998,4584,774,-72,735,-2903,-2554,-174,68,-145
28.548,7044,754,-3050,762,-3512,-2109,-161,82,-142
28.570000000000004,8740,676,-7040,-150,-5138,-2336,-152,81,-164
28.592000000000002,6484,2646,1052,-984,-5087,-3275,-145,83,-181
28.604000000000003,2292,3642,2020,603,-6551,-2903,-108,101,-184
28.626,1732,2982,4908,3526,-9745,-2113,-105,110,-182
28.638,-2106,864,-9216,3537,-8154,-1311,-60,96,-224
28.66,138,2256,-9314,513,-6913,-748,-29,75,-246
28.672,4338,1816,3198,847,-10080,-365,-4,88,-253
28.694,4398,3772,280,3037,-6781,-2408,27,89,-259
28.706,-8768,-1352,-6550,2673,-5394,-2420,72,58,-246
28.727999999999998,-4428,-570,-5926,2321,-6561,-699,81,54,-256
28.750000000000004,3634,-384,-3468,2327,-3941,-1223,102,49,-254
28.762000000000004,-2448,-2154,-4276,1956,-2096,-2831,124,44,-249
28.784000000000002,-6648,-3166,-5732,2456,-3549,-2249,140,22,-246
28.796000000000003,-2504,-2390,-4718,2133,-6115,-1674,152,15,-236
28.812998000000004,-3666,-2724,-4704,1916,-5128,-2154,170,6,-233
28.835000000000004,-5194,-3176,-3262,1391,-4879,-1619,173,-11,-221
28.857000000000003,-2002,-3572,-1952,1818,-2767,-2459,209,-24,-185
28.869000000000003,400,-4548,-2336,2066,-250,-3332,210,-27,-181
28.891000000000002,-10078,-7430,-8968,1856,37,-3857,222,-50,-176
28.903000000000002,-7342,-5568,-1922,1150,-2231,-1906,216,-77,-170
28.925,-3896,-5510,-4060,1565,-2794,-1923,224,-94,-158
28.937,-3354,-6606,-2982,1206,-2182,-2384,215,-101,-162
28.959,-2110,-7512,-5668,1233,-189,-3283,224,-112,-137
28.971,-8174,-9252,-7020,509,-39,-3304,238,-120,-142
28.993,-7602,-8010,-4270,-14,-969,-2398,221,-143,-139
29.005,-2196,-6420,-470,42,-1349,-2029,225,-141,-141
29.027000000000005,-3236,-7442,-1298,481,44,-2856,224,-163,-142
29.049000000000003,-1158,-7708,-1782,640,2395,-3198,219,-165,-130
29.061000000000003,-1092,-8958,-2874,1020,4419,-4009,199,-188,-135
29.083000000000002,-2970,-9702,-4690,1164,6599,-3987,201,-197,-145
29.095000000000002,-2160,-10060,-5214,992,9952,-3543,168,-203,-170
29.117,5552,-9648,4290,1071,19542,-3297,159,-222,-172
29.139,9168,-12302,-3154,2916,21256,-3006,81,-241,-233
29.151,5904,-10026,-2204,2604,18032,-2683,20,-256,-240
29.173,4614,-10950,-6730,3715,12658,-447,-35,-256,-233
29.185,8628,-9338,-8874,2488,3842,-298,-72,-260,-205
29.207000000000004,5560,-8854,-2130,1233,1106,-771,-107,-272,-170
29.218999999999998,7848,-9272,-2446,1007,-354,-904,-111,-275,-172
29.241000000000003,6806,-9930,1928,704,-1624,-1854,-113,-280,-169
29.253000000000004,8622,-10298,-596,1019,-365,-2348,-106,-280,-174
29.275000000000002,9752,-10796,-3866,257,-869,-3290,-121,-270,-155
29.297,8556,-11306,-2958,-907,-1512,-4333,-129,-256,-158
29.309,5272,-10584,-932,-1833,-1550,-4756,-144,-264,-170
29.331,3516,-9494,3104,-2030,-767,-4523,-147,-237,-169
29.343,6720,-8618,124,-1640,256,-4193,-168,-213,-185
29.365,9496,-9308,-3830,-2317,-929,-4609,-176,-217,-198
29.377,8520,-8638,-4402,-3452,-1813,-5324,-180,-193,-199
29.399000000000004,6352,-9054,-2766,-4549,-3685,-5450,-202,-170,-202
29.421000000000003,6334,-7568,-7808,-5690,-5010,-5273,-193,-111,-236
29.433000000000003,7484,-7304,-5508,-7440,-7445,-4645,-190,-92,-252
29.455000000000002,5154,-6694,2814,-8180,-7096,-3200,-168,-56,-278
29.467000000000002,3890,-3520,-1326,-7190,-5992,-2011,-136,-26,-276
29.489,1614,-890,1948,-6449,-4675,-808,-96,37,-298
29.501,-3476,488,-2480,-5600,-2951,446,-81,62,-285
29.523,-5494,1688,1942,-4393,-543,2711,-70,70,-270
29.535,-3530,1018,-122,-2193,689,4891,-61,92,-245
29.557,-2526,-2708,-4382,-2006,1506,6020,-88,84,-233
29.579000000000004,-1414,-5162,1990,-1903,1573,7208,-98,89,-233
29.590999999999998,5670,-5948,4900,-917,1751,7483,-117,77,-221
29.613000000000003,6280,-5548,3168,308,1093,6865,-139,59,-209
29.625000000000004,1550,-7116,1772,1528,1302,6732,-169,43,-207
29.647000000000002,176,-7590,2398,1922,999,7908,-178,3,-206
29.659000000000002,1088,-9956,4438,3653,-183,8341,-197,-16,-209
29.681,5476,-13170,7414,5005,-1993,8647,-199,-54,-197
29.703,11314,-17106,8072,5701,-761,8272,-180,-112,-211
29.715,17114,-16374,10440,6821,539,6487,-174,-162,-205
29.737,12098,-17618,5684,7719,1821,4291,-165,-193,-202
29.749,5822,-17586,2580,7554,3385,3976,-163,-218,-185
29.771000000000004,1730,-17916,3050,7269,6195,4583,-147,-268,-133
29.782999999999998,1004,-19028,1910,6658,11028,6186,-140,-278,-102
29.805000000000003,9494,-17450,-3344,4758,13032,7545,-125,-298,-59
29.827,14114,-13228,-3998,3025,5684,4960,-96,-303,-21
29.839000000000002,9622,-11996,1696,1097,-320,1855,-47,-305,15
29.861,4048,-10678,13150,1325,-3742,-712,-39,-299,22
29.873,-762,-12348,12830,3315,-3003,-1522,-46,-301,31
29.895,576,-11794,10790,4495,-3164,-2078,-41,-301,23
29.907,352,-12872,6780,5093,-1032,-2670,-71,-279,53
29.929,-336,-12288,4676,5463,642,-3144,-81,-269,68
29.951000000000004,2976,-9762,-100,5476,483,-3228,-101,-250,76
29.963000000000005,7462,-9072,-2292,4181,1149,-4007,-96,-232,95
29.985000000000003,8812,-8832,-934,2372,-1430,-6558,-110,-188,118
29.997000000000003,2732,-10176,7594,944,-5315,-8403,-133,-169,121
30.019000000000002,192,-10860,11670,1570,-2685,-8703,-145,-149,109
30.031000000000002,-1862,-9092,5710,1920,-1239,-8504,-151,-125,108
30.053,-2930,-6620,1030,1225,-656,-8011,-176,-58,98
30.065,-3932,-5062,-1084,12,-1368,-6808,-188,-43,107
30.087,-2046,-3244,-5648,-1527,-1227,-6097,-173,-24,92
30.099,-5188,-4270,-6138,-3888,-1230,-4828,-171,-7,90
30.121,-6358,-5980,594,-6180,-3508,-3034,-174,10,93
30.143000000000004,-2616,-6268,6548,-5915,-1902,-1098,-171,2,98
30.154999999999998,-2928,-7090,3070,-6413,-1212,2,-165,-11,94
30.177000000000003,-1490,-7232,8900,-6077,-2183,771,-173,-21,92
30.189000000000004,-4984,-8106,6870,-5327,-3975,2152,-178,-62,94
30.211000000000002,-3036,-8886,9208,-4140,-5646,3916,-192,-72,80
30.233,-804,-10496,7844,-2552,-3768,6057,-198,-93,54
30.245,4616,-10658,-666,-1950,-4088,6531,-210,-113,35
30.267,6890,-13386,5510,-1505,-7673,7044,-211,-165,3
30.279,16054,-11866,1372,-13,-5170,5810,-211,-191,-27
30.301,12636,-9228,-2436,-986,-9202,2069,-202,-211,-53
30.313,5126,-9296,8286,-723,-13024,1404,-181,-222,-74
30.335000000000004,3196,-9114,11060,2056,-6839,1581,-167,-225,-121
30.347285000000003,3892,-9942,1220,3457,-4237,1058,-163,-236,-151
30.369000000000003,270,-9674,-592,3089,-4628,-224,-152,-245,-150
30.391000000000002,-1806,-11114,-1444,3379,-2996,496,-139,-254,-166
30.403000000000002,1638,-11122,-8344,3325,-3716,1509,-136,-261,-154
30.425,7494,-11136,-7372,1099,-4822,1259,-131,-272,-147
30.437,9790,-11094,-4958,386,-4411,395,-116,-270,-160
30.459,7944,-11998,-9936,-881,1227,-893,-112,-269,-166
30.471,3250,-14212,-12830,-4641,1107,-1988,-112,-264,-163
30.493,1668,-14678,-4122,-6337,137,-1240,-123,-260,-169
30.515000000000004,7518,-12594,1942,-6651,868,-1348,-135,-243,-188
30.527000000000005,9562,-11472,5156,-4770,2330,-2403,-135,-225,-217
30.549000000000003,7276,-12044,768,-3120,2467,-3156,-148,-193,-225
30.561000000000003,6272,-10096,-672,-4095,-1429,-3277,-158,-191,-230
30.583000000000002,3460,-8614,2212,-3687,-2836,-3868,-153,-173,-228
30.595000000000002,-256,-7534,-1288,-3336,-3595,-3223,-155,-156,-239
30.617,-764,-6312,1814,-3097,-2858,-1944,-141,-117,-261
30.629,510,-5686,-1676,-1850,139,-1052,-135,-103,-265
30.651,2394,-5952,-5828,-2166,-1211,66,-134,-97,-271
30.673,6380,-5806,-1846,-3139,-562,688,-135,-91,-262
30.685,8644,-4918,-3974,-2543,-339,-324,-135,-70,-270
30.707000000000004,8362,-4536,-8492,-2943,-681,-2073,-136,-62,-264
30.718999999999998,6264,-4140,-3270,-3000,-2911,-3174,-138,-58,-277
30.741000000000003,1206,-4676,-4770,-2357,-3621,-3309,-124,-31,-276
30.753000000000004,82,-3318,-2812,-2845,-9343,-1357,-107,-8,-285
30.775000000000002,5666,-60,-220,-1689,-8774,-870,-81,3,-295
30.797,4538,-798,-2418,-246,-9633,-1699,-36,5,-303
30.813998,-1718,-3260,-9886,136,-7338,-2068,-2,12,-306
30.826000000000004,-140,-2796,-8864,-1495,-8569,-1214,52,11,-302
30.848000000000003,136,-1470,-5286,-2232,-10592,-691,89,12,-289
30.860000000000003,418,-1082,-2016,-1383,-10090,-1268,121,15,-277
30.882,-5834,-2314,-2298,-1114,-6972,-1356,133,22,-243
30.894292000000004,-6010,-1966,-3090,-1236,-2522,-610,193,17,-210
30.916999999999998,-6004,-1992,-5710,-1442,-2076,-643,187,21,-199
30.929,-2754,-244,-2196,-1146,-4323,-932,190,24,-190
30.951000000000004,-2894,-338,-1174,-668,-5582,-1311,197,29,-175
30.973000000000003,-1810,-644,-6554,-189,-7720,-2278,215,12,-145
30.985000000000003,-4710,-3138,-2440,-900,-10948,-3124,220,15,-119
31.007,-8996,-4384,3728,-1655,-6620,-2759,233,3,-65
31.019000000000002,-4348,-2446,2624,-1647,-3070,-2216,239,-10,-33
31.041,-3650,-2028,7198,-1235,-3108,-2714,233,-26,1
31.053,-2028,-2366,6268,-322,-2512,-3765,233,-34,3
31.075,-6664,-5596,2118,112,-4889,-4055,224,-54,10
31.087292,-5710,-7510,-354,-527,-13790,-4155,225,-70,23
31.110000000000003,-5402,-7632,4246,-2226,-14807,-2040,176,-91,95
31.132,3038,-6794,972,-2958,-16738,-1646,124,-105,142
31.144000000000002,4368,-7888,8844,-4520,-17234,-2472,82,-118,160
31.166,540,-7638,16668,-4624,-5362,-2025,20,-122,168
31.178,2142,-8498,8764,-2835,-121,-2246,-56,-163,163
31.2,-2390,-10012,3870,-1992,-3994,-2786,-58,-172,148
31.212,-4862,-9770,9472,-1137,-3508,-1294,-64,-175,144
31.233999999999998,1154,-8162,3674,-1231,327,90,-83,-183,135
31.246,6338,-6732,5338,-1309,-356,-612,-98,-180,132
31.268000000000004,1948,-8446,3990,-1272,-1007,-1375,-102,-186,125
31.290000000000003,-2944,-9620,5250,-967,-1292,-1135,-99,-174,124
31.302000000000003,-266,-9190,4030,-938,-1853,-118,-112,-191,123
31.324,4706,-7902,4116,-805,-2813,-120,-118,-189,109
31.336000000000002,5264,-7646,2136,-1013,-3573,-648,-124,-193,103
31.358,2578,-7924,6298,-947,-1968,-842,-135,-202,81
31.37,164,-8554,4462,-843,550,-556,-145,-192,83
31.392,1108,-8116,5556,-298,1066,-197,-144,-208,77
31.413999999999998,738,-8618,604,-180,541,160,-146,-198,77
31.426,5786,-6842,3842,-551,-1312,53,-144,-203,77
31.448000000000004,4164,-7154,3978,-233,-1589,-433,-141,-196,82
31.460000000000004,-740,-8274,4212,-203,-823,-218,-155,-202,78
31.482000000000003,-278,-8512,3248,-219,566,595,-144,-208,72
31.494000000000003,3084,-8350,4958,-114,1377,1036,-155,-199,66
31.516000000000002,6024,-7572,4906,111,1311,504,-145,-210,74
31.538,4434,-8366,4920,433,1472,241,-141,-206,72
31.55,1932,-9010,4870,592,1980,260,-131,-213,77
31.572,628,-9600,7036,727,2718,604,-130,-205,81
31.584,-612,-10424,9650,996,5527,1138,-130,-222,100
31.605999999999998,-2656,-11426,13470,841,12918,1924,-99,-207,107
31.618,2708,-12316,20568,173,30151,3042,-52,-208,125
31.640000000000004,8390,-11802,2598,-1184,32767,4876,16,-210,138
31.662000000000003,3558,-8204,250,-1362,10048,3509,118,-205,95
31.674000000000003,-5896,-9678,-2608,-1283,5850,2565,204,-183,-15
31.696,-9058,-10086,-2486,-2366,5076,2975,221,-180,-29
31.708000000000002,-12532,-11118,100,-2749,4729,3814,217,-164,-50
31.73,-7456,-10064,2070,-3103,3751,5264,231,-150,-82
31.742,-3468,-7940,3954,-2614,3521,5803,238,-110,-123
31.764,-2918,-7310,-1614,-2709,14584,5257,232,-88,-126
31.785999999999998,11584,-1370,6084,-4858,30332,2822,226,-64,-166
31.798,12922,-878,-9550,-2943,29185,-1204,187,-39,-233
31.820000000000004,3756,-2638,-13808,-3002,16146,-3048,-9,-17,-320
31.832000000000004,-132,-1992,-2316,-3276,11361,-2353,-53,-7,-308
31.854000000000003,5166,-392,-378,-1243,11785,-1862,-102,6,-288
31.866000000000003,7668,-310,-4368,-1050,13365,-2301,-134,13,-266
31.888,3970,-808,7298,-1164,15639,-1764,-174,20,-198
31.900000000000002,9678,-388,7996,332,22925,-1132,-198,25,-150
31.922,12676,1006,-64,307,25069,-771,-209,36,-72
31.944,7078,868,4684,120,21340,-1058,-201,37,7
31.956,3198,802,5056,315,17640,-593,-102,49,115
31.977999999999998,1024,1232,4598,-119,18792,-536,-46,45,150
31.99,-2738,1302,2744,-593,16267,-44,7,45,143
32.012,-4186,630,4220,-323,11320,159,69,56,132
32.024,-8010,-736,4756,467,8317,46,131,51,101
32.04600000000001,-5620,786,38,350,8306,557,161,54,75
32.05800000000001,-4596,1340,2814,366,6129,437,180,59,60
32.08,-4658,1290,1976,613,8640,-259,176,65,43
32.102000000000004,-5748,708,-572,389,10126,-665,197,72,-10
32.114000000000004,-8318,-952,-6050,120,12311,-691,204,62,-32
32.135999999999996,-6710,-704,-4026,-376,12235,12,205,65,-83
32.147999999999996,-4738,370,-5432,-906,12839,277,209,56,-111
32.17,-3462,1026,-3890,-682,11265,304,168,62,-199
32.182,-3282,1198,-5298,-81,9795,583,153,62,-221
32.20400000000001,-536,778,-3792,943,6513,1139,144,64,-240
32.226,674,-26,-7074,1187,7680,1137,101,65,-253
32.238,4306,736,-9328,189,9771,1310,61,64,-278
32.260000000000005,5780,1798,-6342,-478,9623,598,36,48,-277
32.272000000000006,2110,848,-1368,-341,10112,-60,-3,62,-283
32.294,1330,444,-4586,525,8460,909,-31,53,-274
32.306,1080,106,-8122,257,5446,1507,-78,36,-273
32.328,2988,-628,-1628,-319,4957,2574,-105,49,-252
32.34,9886,-846,3890,646,4404,2886,-115,44,-242
32.361999999999995,11704,-1008,1722,1714,7481,2598,-131,49,-230
32.384,14388,-926,4538,2593,6397,1596,-165,18,-218
32.396,10408,-3048,-2606,3737,5056,273,-185,8,-192
32.418000000000006,5390,-3084,-5476,2138,4545,442,-202,-1,-175
32.43000000000001,3294,-2680,-276,1248,3207,1094,-209,1,-163
32.452,5618,-3134,5138,975,2048,2178,-210,-12,-155
32.474000000000004,13856,-3254,9394,1992,814,2927,-216,-34,-154
32.486000000000004,20632,-3400,8382,3888,1290,1474,-221,-18,-137
32.507999999999996,15188,-4540,1396,4313,2869,-641,-219,-49,-135
32.519999999999996,7054,-4962,-388,3215,3436,-746,-232,-58,-133
32.542,5820,-4190,1112,2763,2747,94,-236,-64,-115
32.554,5992,-3702,594,2373,1744,540,-233,-69,-101
32.57600000000001,9218,-3542,2982,1976,84,939,-242,-58,-95
32.58800000000001,10486,-3564,2924,2143,-249,412,-247,-73,-100
32.61,8402,-4688,1038,2299,-948,215,-245,-77,-94
32.632000000000005,7964,-5066,-2462,1710,-2127,453,-239,-73,-98
32.644000000000005,7918,-4562,-4398,665,-3748,479,-240,-74,-111
32.666,7134,-5362,-6752,-106,-7030,780,-239,-83,-133
32.678,6824,-6668,-7048,-623,-9727,1736,-240,-87,-158
32.7,7316,-7330,-9930,-1006,-11625,2377,-216,-84,-190
32.712,7456,-7894,-9504,-888,-14117,2455,-196,-91,-222
32.733999999999995,-770,-10514,-11160,-798,-15774,4403,-116,-93,-289
32.756,4060,-9788,-16222,1080,-23582,5818,-70,-98,-315
32.768,6414,-7962,-14610,2894,-32768,5782,8,-112,-319
32.790000000000006,2894,-5098,1994,5997,-32768,3151,113,-131,-296
32.80200000000001,-6000,-4452,4298,7128,-29606,-1470,240,-115,-65
32.81899800000001,-15780,-9108,9448,5479,-21723,-3181,210,-108,40
32.840999999999994,-16236,-7476,14218,5054,-12519,-1876,150,-93,112
32.852999999999994,-11978,-6834,9856,5307,-3952,-833,84,-81,145
32.875,-8240,-4990,1478,5228,-2783,-412,59,-36,161
32.887285000000006,-5970,-2894,2406,3848,-6006,-178,54,-21,166
32.909000000000006,-4780,-1646,3308,3156,-7201,-402,26,-10,160
32.931,-2958,-1740,5722,2434,-9041,-197,19,2,150
32.943,832,-1006,6182,1754,-7700,-588,-36,25,148
32.965,2360,-1288,8838,921,-5430,-1024,-69,31,142
32.977000000000004,18,-1038,8502,997,-2918,-1237,-76,24,132
32.998999999999995,-2780,-1346,8188,1294,-3782,-654,-83,31,142
33.021,-5312,-2916,5810,1549,-3818,677,-106,35,109
33.033,-2232,-3112,3878,1198,-122,2128,-108,50,102
33.05500000000001,-2154,-4370,-644,713,527,2828,-128,50,107
33.06700000000001,-3268,-5320,508,-770,-1713,3612,-123,55,95
33.089,-198,-6458,2008,-1332,-1342,4482,-147,25,95
33.101,3462,-6684,2666,-2333,1229,4546,-153,13,99
33.123000000000005,5458,-6582,5460,-2434,-908,4082,-152,2,105
33.144999999999996,5628,-6280,2032,-3196,608,3062,-171,-17,102
33.157,2418,-5640,5980,-4354,3168,1878,-168,-49,99
33.179,1384,-5094,9200,-5280,8761,1185,-162,-75,102
33.191,-1310,-6102,8844,-5836,16238,641,-136,-92,123
33.21300000000001,-1918,-6892,7062,-6030,16309,893,-110,-105,151
33.224999999999994,2148,-4786,8166,-5186,11086,572,-1,-155,166
33.247,-408,-4928,4796,-3633,3590,-256,48,-172,153
33.259,530,-4774,7310,-3446,-216,-457,73,-180,149
33.281000000000006,-4512,-5942,8102,-2627,-1863,-682,56,-191,130
33.303,-7724,-6722,8396,-2053,-3071,484,43,-205,129
33.315,-4582,-7560,10816,-1012,-4325,1993,52,-218,115
33.337,1760,-7218,9876,80,-3873,2225,44,-218,111
33.349000000000004,6096,-6872,7652,522,-2824,1317,30,-213,118
33.370999999999995,8376,-6008,5434,865,-1567,-277,26,-215,129
33.382999999999996,5028,-6990,8946,1057,-445,-1465,21,-220,124
33.405,2880,-8312,9582,1590,2074,-1891,19,-215,124
33.42700000000001,230,-9244,11548,2520,1762,-2369,13,-216,127
33.43900000000001,-2834,-10432,13778,3849,1607,-1822,8,-198,137
33.461,-2572,-11938,12248,5207,974,-1381,15,-188,144
33.473,3814,-11824,8480,5911,3196,-2051,12,-174,160
33.495000000000005,-862,-10346,1090,5818,893,-2847,21,-151,155
33.507000000000005,-1398,-8994,1022,5368,-178,-2798,24,-103,174
33.528999999999996,-3702,-7536,536,3500,365,-1895,21,-86,169
33.541285,-3744,-6822,9820,2952,-1108,-1584,26,-70,169
33.563,-6706,-7590,14288,3584,-783,-973,26,-68,186
33.58500000000001,-220,-6448,14124,4567,754,-136,19,-53,169
33.596999999999994,2626,-6208,8278,5116,2310,-594,38,-17,174
33.619,-162,-4462,2444,4331,1979,-1690,39,6,154
33.631,-6458,-3492,8714,3118,-1428,-1231,56,16,154
33.653000000000006,-6516,-3424,15742,3449,-719,346,54,36,149
33.665000000000006,-26,-2756,13308,5024,-887,948,43,43,133
33.687,66,-1968,9108,5504,-2063,366,48,63,121
33.709,-2556,-1248,3356,5153,-1852,151,32,79,123
33.721000000000004,-3354,-810,7716,3818,-621,682,31,101,93
33.742999999999995,2236,484,10722,3945,1350,1308,31,124,86
33.754999999999995,1582,524,8092,4451,-1460,639,29,126,83
33.777,-1032,1444,7950,4430,-2322,189,27,137,72
33.789,-280,1760,6842,4005,-536,448,27,153,39
33.81100000000001,-1346,1964,7394,4197,-353,395,14,151,35
33.833,-4456,816,12504,4186,455,1157,12,162,2
33.845,-1466,452,8608,5972,111,1721,14,162,-4
33.867000000000004,6928,3314,-394,6281,-823,1273,4,184,-43
33.879000000000005,1906,4272,-1814,4535,-2943,-446,1,178,-65
33.900999999999996,-1736,4362,6016,4159,-1894,131,0,177,-86
33.913,1476,5034,2400,4676,-3567,242,6,175,-96
33.935,-92,5016,2592,4767,-3618,38,1,175,-130
33.947,3344,5652,-794,4976,-5038,-513,16,169,-153
33.968999999999994,2298,6200,-1120,4605,-7779,-1569,15,153,-161
33.981291999999996,-1082,5644,2200,3932,-7127,-2129,26,151,-181
34.003,-2528,5670,-2040,3803,-4034,-1514,66,130,-202
34.025000000000006,880,6620,-2798,3959,-5201,-1567,79,118,-200
34.037000000000006,-1498,5286,-3278,2764,1229,-1811,87,108,-207
34.059,80,5592,-6852,1924,2166,-1482,110,102,-218
34.071,-468,5766,-4636,1621,1544,-1488,99,91,-231
34.093,-2036,6078,-6540,1619,-1322,-1289,102,84,-235
34.105000000000004,-972,6464,-4506,1123,-1855,-897,98,77,-240
34.126999999999995,1108,7120,-3282,888,-830,-1006,113,73,-248
34.149,-900,6666,-4404,1037,-1004,-1547,108,75,-251
34.161,-2424,6424,-4534,628,-1006,-1436,124,46,-254
34.18300000000001,-2552,6416,-5088,448,150,-1079,127,49,-240
34.19500000000001,-2530,6190,-8238,201,-81,-1060,134,41,-249
34.217,-4300,5732,-10872,-454,-509,-1057,139,41,-252
34.229,-5292,4762,-10770,-1709,-54,-692,135,48,-251
34.251000000000005,-3632,4966,-6702,-2441,1076,-414,127,34,-249
34.272999999999996,-3314,5596,-8268,-2123,-838,-316,135,43,-236
34.285,-3948,5956,-8610,-2497,-2148,61,144,54,-235
34.307,-5930,5298,-10932,-3326,-297,479,146,51,-216
34.319,-5222,4718,-10370,-4887,2286,760,136,77,-216
34.340999999999994,-3376,4816,-2490,-6181,3417,1036,148,89,-204
34.352999999999994,-1082,4888,5480,-5239,381,1210,133,103,-196
34.375,2206,6972,3010,-4085,2456,446,117,115,-180
34.387,-4344,5752,-6522,-5288,3080,113,121,124,-164
34.409000000000006,-694,5076,-3478,-6189,966,97,112,140,-156
34.431,202,3266,-2572,-6950,1548,250,105,143,-125
34.443,-1754,322,6922,-7838,567,144,108,144,-107
34.465,780,910,10774,-7018,334,-199,108,159,-90
34.477000000000004,2788,2148,18082,-4990,-4716,-170,118,146,-64
34.498999999999995,-1118,2532,6890,-3381,-5172,-989,108,156,-11
34.510999999999996,-3280,3186,6832,-3902,-3654,272,101,144,4
34.533,-4120,1150,4156,-4431,992,1130,105,130,27
34.55500000000001,2572,1804,5872,-4614,2438,1026,98,130,39
34.56700000000001,3090,1544,11866,-4005,943,850,88,122,63
34.589,5244,1154,10048,-3283,-2015,-1111,78,112,70
34.601,-1296,438,6204,-2985,-3706,-923,90,97,72
34.623000000000005,-2010,112,5380,-3312,-4971,-55,75,98,88
34.644999999999996,468,284,8944,-3163,-3490,822,55,81,124
34.657,-2302,-1002,5584,-3214,934,1076,44,67,130
34.679,-236,-1374,6294,-3963,1874,1279,48,68,136
34.691,1262,-1424,11444,-3750,1379,1164,52,54,137
34.71300000000001,1640,-1344,12316,-3092,1323,573,53,25,145
34.724999999999994,4056,-1718,4784,-2894,-46,-232,59,21,144
34.747,-2756,-3406,5224,-3407,-1553,-85,54,3,149
34.759,-256,-4186,3032,-3869,-1851,383,62,-2,160
34.781000000000006,-1686,-4532,8022,-4026,-305,1306,39,-29,163
34.793000000000006,4490,-5118,7786,-4055,1199,1569,43,-35,162
34.819998,198,-5448,3162,-4093,69,535,47,-56,170
34.83200000000001,-4216,-7194,1776,-4144,484,1263,41,-73,164
34.854,1274,-6996,5046,-5001,1911,1871,38,-93,169
34.866,1798,-8326,10012,-4719,94,1682,36,-113,164
34.888000000000005,2964,-8236,13274,-3853,-218,763,54,-132,151
34.900000000000006,2180,-8520,12578,-2770,-1301,20,54,-137,149
34.922,2496,-7546,4728,-1981,-1843,-312,49,-155,147
34.934285,136,-6954,3352,-2155,-1579,-23,47,-158,149
34.95700000000001,954,-7608,988,-2472,-1274,304,33,-174,148
34.979,484,-8642,4932,-2612,591,634,27,-186,147
34.991,1750,-9026,5346,-2415,1026,214,31,-202,124
35.013000000000005,1144,-8784,3914,-2282,1108,-431,26,-220,124
35.025000000000006,786,-9010,3152,-2043,649,-630,31,-210,117
35.047,-1976,-9844,2114,-2012,1027,-441,35,-213,108
35.059,58,-9388,1248,-1657,-174,-170,41,-237,109
35.081,-516,-9026,1770,-1395,-826,32,37,-234,99
35.093,1900,-8612,1242,-1539,118,-131,33,-243,107
35.114999999999995,-1156,-9880,1918,-1679,339,158,30,-246,89
35.137,-2184,-10456,3066,-1426,-470,355,29,-248,95
35.149,-2018,-10758,2648,-1220,-649,934,35,-254,87
35.17100000000001,2204,-11068,22494,1341,-3814,418,32,-251,77
35.18300000000001,8200,-7064,8566,-2847,1410,1214,24,-258,74
35.205,5584,-7332,2148,-421,-688,134,32,-269,75
35.217,1044,-8622,6530,-367,520,-600,46,-265,66
35.239000000000004,-2582,-8970,-456,-401,611,-243,39,-274,75
35.260999999999996,-1166,-8446,200,-315,-1143,455,32,-272,60
35.272999999999996,376,-7492,4332,-345,-1031,702,42,-277,63
35.295,3812,-6682,4682,24,-117,297,38,-273,64
35.307,1364,-7070,2336,165,212,-377,42,-274,63
35.32900000000001,-2624,-7564,808,-396,879,-524,50,-260,66
35.341285,-2404,-7376,1962,-498,768,55,37,-284,53
35.364000000000004,-328,-6398,4364,-525,1136,415,32,-279,60
35.376000000000005,3236,-6080,4594,-292,1577,-47,43,-291,47
35.397999999999996,584,-7234,4222,-41,1549,-370,42,-282,56
35.42,-2514,-7912,3502,165,1390,-263,54,-279,68
35.432,-6922,-8798,5050,392,977,1068,48,-273,59
35.45400000000001,-6500,-9834,7024,1161,77,3280,52,-289,49
35.465999999999994,4676,-9854,5766,1961,-473,3245,61,-284,49
35.488,3602,-9394,8534,2695,622,1644,75,-258,66
35.5,-182,-10442,5406,3975,201,740,84,-253,69
35.522000000000006,-6134,-11892,6576,4393,-1126,923,88,-239,77
35.544,-6120,-13590,8748,5641,-1802,1811,96,-235,100
35.556,-2860,-12962,7140,6171,-995,1777,85,-193,115
35.578,-1960,-12362,6524,6472,-1065,1481,93,-170,125
35.59,-12,-12130,7270,6930,946,1525,85,-150,130
35.611999999999995,866,-11200,2032,6991,-626,865,99,-129,148
35.623999999999995,-1398,-9636,2930,6431,-2748,-626,96,-81,157
35.646,-6502,-9286,5174,5791,-2993,-733,96,-48,143
35.658,-5620,-7724,5632,5530,-3492,291,81,-24,149
35.68000000000001,-1314,-6122,7352,4915,-3918,662,71,-13,158
35.702,2692,-4416,14224,4708,-2590,-308,44,24,147
35.714,902,-4956,11570,5841,2280,-720,39,34,149
35.736000000000004,-112,-3494,788,6006,1239,-721,42,51,132
35.748000000000005,1188,-1760,3912,4400,1855,-1073,53,75,124
35.769999999999996,-894,-2,4862,3356,1933,-1657,77,93,100
35.782,-4848,908,8336,3275,940,-600,70,98,90
35.804,-914,796,11392,3634,2662,616,88,110,77
35.82600000000001,2268,366,7476,4244,1933,-416,76,112,70
35.83800000000001,-1242,2644,1928,3747,1928,-1891,95,127,46
35.86,-7576,2436,4866,2973,1484,-718,107,135,27
35.872,-3952,3482,6418,2818,1945,439,124,135,15
35.894000000000005,-1284,4746,6650,3400,-975,810,112,143,5
35.906000000000006,-4932,3844,4490,3381,-1719,703,112,148,-22
35.928,-2898,4312,5468,3299,-211,1274,106,149,-40
35.94,-1712,4856,5488,3405,-151,1340,107,163,-44
35.962,-614,5452,1528,3753,-1591,707,104,164,-50
35.983999999999995,-1334,6210,3944,3281,-1466,319,85,158,-70
35.995999999999995,-2422,5934,2904,3235,-1436,245,93,163,-94
36.018,-1922,5818,7484,2967,544,687,93,163,-84
36.03,-1672,5224,5976,3684,1932,768,93,158,-96
36.05200000000001,1482,6302,2232,4038,2328,909,78,170,-130
36.06400000000001,538,6030,-1290,3751,1890,184,82,151,-150
36.086,-2856,6238,-4536,2643,2461,355,87,144,-150
36.108000000000004,-2064,6896,472,2145,-85,991,75,144,-181
36.120000000000005,-3754,5974,3842,2479,-291,1072,50,141,-191
36.141999999999996,-118,7278,1624,3036,339,1455,65,131,-184
36.153999999999996,32,7212,-1026,3057,277,779,56,127,-209
36.176,-1878,7204,-2520,2649,682,787,44,127,-204
36.188,-2950,6200,-2744,2363,-838,867,59,112,-233
36.21000000000001,-3476,6564,-548,2174,-377,1329,44,94,-235
36.232,1378,7700,-3710,2389,-1707,1333,49,99,-247
36.244,1224,8200,338,1965,-1630,668,44,97,-245
36.266000000000005,648,7636,-400,2304,-323,616,43,88,-239
36.278000000000006,264,7016,-2210,2310,-94,528,56,79,-266
36.3,176,6602,-2372,2507,-668,537,44,77,-261
36.312,-1114,5502,-2250,2719,-1355,433,54,64,-266
36.334,-1594,5118,-3794,2920,-1634,452,61,49,-283
36.346000000000004,-44,4892,-4728,3043,-3136,612,49,49,-283
36.367999999999995,356,4040,-5664,3245,-2666,387,61,39,-283
36.39,1326,3150,-7658,2849,-2570,-541,70,20,-291
36.402,-1382,2030,-8778,2761,-7056,-1386,89,7,-296
36.42400000000001,-4088,4286,-1838,2910,-5619,-760,108,-5,-284
36.43600000000001,-1472,2708,-9700,2557,-957,-619,127,-16,-280
36.458,-4510,2350,-10608,1447,507,-698,142,-15,-265
36.47,-3902,2858,-10234,940,651,28,130,-37,-272
36.492000000000004,-2560,3280,-6444,26,2937,175,128,-37,-284
36.513999999999996,-1084,2698,-10100,104,3625,484,129,-46,-292
36.525999999999996,98,2762,-11750,-638,2149,66,115,-41,-292
36.548,-1806,3196,-6970,-936,1515,-20,88,-46,-302
36.56,-308,3810,-9316,-739,1436,82,90,-39,-300
36.58200000000001,-316,4404,-8950,-1172,429,-166,92,-35,-308
36.593999999999994,-1472,4768,-9586,-1298,-372,-284,90,-36,-309
36.616,-2558,4822,-8000,-1601,-1811,-145,83,-26,-295
36.628285000000005,-2566,5440,-6738,-1684,-1469,103,95,-21,-297
36.650999999999996,-2266,5908,-7348,-1559,-429,386,94,-10,-294
36.673,-798,6264,-11792,-2106,20,290,106,-5,-282
36.685,-518,5852,-11568,-3347,865,-49,87,12,-294
36.70700000000001,-1208,5486,-12030,-4578,1210,-320,106,17,-289
36.718999999999994,-1960,5356,-8942,-5549,1285,-208,98,31,-278
36.741,-1782,6376,-3270,-5844,3851,64,92,53,-272
36.753,-1366,4960,-2754,-5073,504,1847,76,69,-254
36.775000000000006,-2000,3120,-4318,-5252,846,1043,77,78,-243
36.797,-3608,2184,-3258,-5981,1038,1533,78,105,-225
36.809,-182,2848,1842,-6622,915,1518,54,115,-216
36.825998,252,3656,3856,-6019,938,1330,54,143,-178
36.848,688,4330,6530,-5403,455,947,54,160,-151
