Tiempo,AccX,AccY,AccZ,GyrX,GyrY,GyrZ,MagX,MagY,MagZ
0.0,-370,918,8282,-28,-278,-131,-29,-250,638
0.011999999999943611,-1024,958,8502,-13,-69,-85,-29,-253,633
0.03399999999987813,-818,954,8326,5,7,-25,-37,-244,634
0.04628499999989799,-884,804,8296,41,55,-22,-36,-245,635
0.06799999999998363,-616,860,8262,-20,-38,25,-30,-249,634
0.08999999999991815,-164,940,8404,-15,-26,76,-42,-267,646
0.10199999999986176,-330,1032,8276,-30,-82,-17,-36,-263,640
0.12399999999979627,-554,1076,8518,-36,-75,-11,-31,-258,640
0.13599999999996726,-546,998,8470,8,24,-45,-26,-253,635
0.15799999999990177,-368,990,8334,18,65,-19,-30,-254,639
0.16999999999984539,-244,1024,8076,-30,-69,-72,-24,-258,635
0.19200000000000728,-950,1022,8420,-34,-123,-56,-32,-254,639
0.2139999999999418,-808,1058,8262,11,26,35,-31,-250,647
0.2259999999998854,-626,1010,7942,23,5,48,-39,-256,644
0.24799999999981992,-106,1076,7882,-11,-73,20,-29,-258,633
0.2599999999999909,-426,1060,7796,-59,-233,-24,-32,-241,644
0.2819999999999254,-66,1172,7694,-30,-207,-17,-33,-248,647
0.29399999999986903,-874,1028,8308,-29,-315,-100,-30,-254,632
0.31599999999980355,-416,1106,8584,-16,-217,29,-48,-253,635
0.33799999999996544,-92,986,8524,-23,-269,108,-30,-244,637
0.34999999999990905,732,1110,8498,-53,-220,38,-49,-259,641
0.37199999999984357,94,1020,8976,-26,-415,-32,-49,-259,639
0.38400000000001455,-70,998,9194,-53,-517,39,-54,-256,639
0.40599999999994907,-6,918,9286,-21,-613,98,-49,-246,656
0.4179999999998927,398,940,9578,42,-598,123,-55,-250,640
0.4399999999998272,678,1040,9190,108,-685,37,-53,-240,645
0.4519999999999982,162,1138,8988,116,-972,46,-61,-246,646
0.4739999999999327,118,1054,8802,136,-1091,168,-71,-246,629
0.4959999999998672,754,1064,8554,100,-1141,237,-73,-241,632
0.5079999999998108,1040,1212,8598,79,-1235,158,-83,-249,641
0.5299999999999727,550,1260,8790,88,-1150,128,-87,-243,640
0.5419999999999163,866,1336,8494,69,-905,158,-95,-249,641
0.5639999999998508,1110,1256,8394,34,-885,208,-105,-244,634
0.5860000000000127,1402,1266,8486,18,-710,210,-111,-240,640
0.5979999999999563,1650,1266,8534,11,-885,162,-112,-246,641
0.6199999999998909,1576,1194,8666,91,-761,149,-119,-239,632
0.6319999999998345,1502,1284,7872,107,-680,89,-124,-241,629
0.6539999999999964,1366,1290,7796,97,-635,125,-133,-240,633
0.66599999999994,1388,1220,7622,58,-667,252,-127,-236,629
0.6879999999998745,1788,1350,7648,4,-822,260,-128,-230,623
0.6999999999998181,1784,1218,7716,9,-742,298,-140,-227,628
0.72199999999998,1936,1386,7560,-31,-824,285,-141,-244,627
0.7439999999999145,1714,1308,7632,21,-936,336,-148,-246,627
0.7559999999998581,1954,1362,7422,5,-930,367,-153,-234,613
0.7779999999997926,2358,1296,7388,-30,-889,467,-155,-243,623
0.7899999999999636,2258,1154,7066,-62,-1059,451,-164,-243,612
0.8119999999998981,2482,1090,7470,-107,-1155,566,-169,-232,612
0.8239999999998417,2656,910,7404,-92,-1448,588,-170,-236,620
0.8460000000000036,3248,844,7410,-76,-1432,642,-191,-237,609
0.8579999999999472,3476,902,7148,-81,-1377,625,-193,-235,616
0.8799999999998818,3658,846,7526,-32,-1319,620,-197,-241,610
0.9019999999998163,3312,628,7404,-44,-906,613,-204,-231,608
0.9139999999999873,3592,686,7386,13,-755,733,-208,-237,602
0.9359999999999218,3746,636,7278,60,-694,787,-220,-250,602
0.9479999999998654,4052,642,6814,71,-736,801,-215,-237,597
0.9699999999997999,4270,396,6516,38,-895,800,-220,-250,600
0.9819999999999709,4336,162,6428,-5,-1133,865,-217,-245,597
1.0039999999999054,4720,356,6462,-36,-1132,787,-226,-256,594
1.02599999999984,4320,372,7022,-11,-1250,784,-233,-251,582
1.038000000000011,4226,176,6884,127,-1080,924,-244,-245,588
1.0599999999999454,4782,132,6386,138,-787,955,-251,-253,580
1.071999999999889,5104,62,6174,104,-782,877,-247,-263,573
1.0939999999998236,4918,36,5792,98,-839,834,-249,-268,571
1.1059999999999945,4908,54,5808,97,-1037,874,-250,-267,577
1.127999999999929,4886,-38,5710,100,-1130,946,-251,-255,576
1.1499999999998636,5372,-14,5382,49,-1249,942,-267,-259,560
1.1619999999998072,4644,-326,5918,32,-1187,907,-267,-264,562
1.183999999999969,4652,-520,5914,75,-1051,1175,-273,-260,561
1.1959999999999127,5758,-648,6108,126,-772,1233,-278,-273,557
1.2179999999998472,5900,-954,5466,171,-869,1147,-272,-279,560
1.2300000000000182,6190,-1020,5372,169,-1038,1148,-283,-286,547
1.2519999999999527,6308,-994,5518,229,-1074,1038,-276,-283,545
1.2639999999998963,6126,-1246,5038,307,-901,1000,-286,-289,548
1.2859999999998308,6656,-1264,4386,289,-776,945,-286,-292,539
1.3079999999999927,6140,-1384,4250,180,-836,806,-293,-288,535
1.3199999999999363,5842,-1344,4132,118,-1116,920,-288,-288,530
1.3419999999998709,5904,-1740,3770,159,-1463,1053,-290,-296,528
1.3539999999998145,7042,-1888,3600,124,-1571,1029,-301,-294,529
1.3759999999999764,7100,-1890,3766,17,-1790,922,-300,-298,513
1.38799999999992,7414,-1904,5218,64,-1250,780,-295,-301,511
1.4099999999998545,7136,-2032,4588,357,-321,646,-308,-302,510
1.4320000000000164,6908,-2142,4264,397,2,632,-317,-311,509
1.44399999999996,6526,-2206,3884,383,321,615,-308,-302,510
1.4659999999998945,6324,-2382,3914,343,418,684,-306,-305,505
1.477999999999838,6382,-2356,4092,356,354,742,-306,-312,515
1.5,6586,-2404,3966,382,340,792,-306,-312,527
1.5119999999999436,6232,-2394,3844,332,144,798,-297,-316,518
1.5339999999998781,6118,-2334,4034,313,-6,831,-290,-313,530
1.5459999999998217,5806,-2258,4260,250,75,884,-289,-307,527
1.5679999999999836,5630,-2380,4434,245,90,841,-284,-310,531
1.5899999999999181,5354,-2608,4592,286,236,918,-283,-318,533
1.6019999999998618,5644,-2634,4316,291,345,1025,-297,-308,530
1.6239999999997963,5706,-3006,4376,312,433,989,-289,-312,539
1.6359999999999673,5958,-3096,4146,247,281,1021,-284,-322,539
1.6579999999999018,5622,-3170,4334,227,382,1051,-277,-312,539
1.6799999999998363,5760,-3194,4762,172,543,1050,-271,-313,545
1.6920000000000073,5624,-3340,4710,184,701,986,-265,-315,565
1.7139999999999418,5176,-3656,4584,193,614,988,-254,-321,561
1.7259999999998854,5502,-3510,4532,171,432,1044,-250,-315,553
1.74799999999982,5216,-3648,4950,107,352,916,-253,-317,570
1.759999999999991,4958,-3954,5106,159,599,1013,-247,-324,568
1.7819999999999254,5650,-3966,4722,78,416,1042,-233,-325,570
1.793999999999869,5498,-4006,5512,79,486,919,-237,-313,578
1.8109979999999268,5350,-4006,5476,163,612,821,-222,-324,578
1.8329999999998563,4594,-4272,4768,166,407,826,-216,-317,584
1.8550000000000182,5036,-4234,4870,92,67,860,-203,-329,580
1.8669999999999618,4548,-4498,4968,-19,500,707,-198,-318,573
1.8889999999998963,4432,-4632,5510,-61,421,888,-204,-310,591
1.90099999999984,5134,-4558,6320,-62,683,965,-196,-311,585
1.9230000000000018,5008,-4622,6668,131,480,829,-188,-316,578
1.9349999999999454,4928,-4400,6926,363,770,714,-178,-315,586
1.95699999999988,4120,-4572,6302,445,985,596,-168,-315,577
1.9789999999998145,3896,-4642,6112,450,1045,661,-158,-302,570
1.9909999999999854,4368,-4882,6090,421,964,747,-150,-308,568
2.01299999999992,4538,-4644,6330,423,713,685,-138,-313,568
2.0249999999998636,4492,-4480,6282,429,375,590,-139,-320,551
2.046999999999798,3976,-4266,6254,400,698,319,-118,-313,547
2.058999999999969,2942,-4382,6628,348,763,362,-115,-335,543
2.0809999999999036,2976,-4278,7346,433,1117,503,-111,-331,537
2.092999999999847,3214,-4366,7496,574,981,596,-106,-336,530
2.115000000000009,3566,-4370,7234,671,884,593,-95,-345,531
2.1369999999999436,3580,-4432,7354,662,921,479,-84,-361,518
2.1489999999998872,3508,-4596,6996,656,988,409,-76,-368,522
2.1709999999998217,3262,-4174,6994,560,1331,241,-49,-373,517
2.1829999999999927,1970,-4120,6470,410,1780,108,-36,-410,504
2.2049999999999272,1232,-4112,6920,263,1233,435,-24,-422,506
2.216999999999871,1890,-4026,7816,377,1515,505,-20,-423,500
2.2389999999998054,1412,-4268,6380,409,1957,624,1,-446,486
2.2609999999999673,2100,-4020,7206,258,989,622,43,-468,494
2.272999999999911,1708,-4234,8294,166,563,541,62,-475,485
2.2949999999998454,936,-4464,8146,334,1503,573,81,-492,464
2.3070000000000164,1516,-4148,9100,573,1197,540,107,-499,476
2.328999999999951,1530,-4204,8622,651,796,530,151,-507,462
2.3409999999998945,1874,-4112,8422,761,880,295,178,-510,469
2.362999999999829,2070,-4076,8220,768,972,54,197,-517,474
2.375,1332,-4188,6736,490,1020,-246,216,-510,479
2.3969999999999345,740,-3918,9360,520,880,-282,257,-517,491
2.418999999999869,594,-3596,9154,714,1269,-276,271,-516,485
2.4309999999998126,584,-3512,10380,894,838,-294,280,-529,502
2.4529999999999745,-46,-3486,8370,1088,1142,-400,293,-529,523
2.464999999999918,860,-2746,8642,1162,1121,-526,323,-530,560
2.4869999999998527,-1060,-3264,7540,846,1464,-911,316,-507,560
2.4989999999997963,-2106,-3030,8450,1023,1002,-181,326,-511,590
2.520999999999958,120,-2504,7376,940,1456,-116,331,-486,595
2.5429999999998927,-294,-2476,9702,918,352,-66,326,-440,614
2.5549999999998363,-464,-2354,8500,1181,223,-178,330,-436,637
2.576999999999998,-1044,-2266,8004,1043,318,-251,330,-396,649
2.588999999999942,-1376,-2168,8732,962,230,-134,308,-373,658
2.6109999999998763,-444,-1986,7946,940,31,-135,289,-330,668
2.62299999999982,-786,-2076,9264,920,96,96,273,-311,678
2.644999999999982,0,-1802,8954,1031,896,239,263,-296,669
2.6669999999999163,-452,-1614,8356,1094,1843,59,255,-267,677
2.67899999999986,-870,-1540,7044,933,1889,8,253,-236,646
2.7009999999997945,-1258,-1962,6100,742,4085,-960,253,-213,644
2.7129999999999654,-2750,-1076,9500,610,1405,-392,253,-211,608
2.7349999999999,-4002,-1722,8276,866,629,33,253,-198,615
2.7469999999998436,502,-752,10486,990,644,-326,250,-188,596
2.7690000000000055,-4666,-1530,7246,1036,1483,-1167,243,-180,596
2.780999999999949,-3830,-892,8182,1145,1056,-175,239,-177,578
2.8029999999998836,-3856,-900,6732,1186,1777,-411,238,-175,558
2.824999999999818,-2790,-384,7322,1037,1867,-251,232,-154,549
2.836999999999989,-3448,-370,6916,944,1033,-341,230,-162,537
2.8589999999999236,-3834,-290,8196,839,423,-345,232,-154,535
2.870999999999867,-4124,-242,7550,955,166,-131,231,-145,517
2.8929999999998017,-3774,-124,7162,963,40,-14,222,-144,516
2.9049999999999727,-3722,110,6886,801,54,63,216,-140,510
2.9269999999999072,-3892,282,7114,642,166,187,210,-131,521
2.9489999999998417,-3748,324,8452,632,327,236,203,-134,506
2.9610000000000127,-3702,420,8350,742,500,208,188,-126,504
2.9829999999999472,-3544,312,7742,915,348,216,193,-129,494
2.994999999999891,-3280,474,7168,870,-101,2,191,-121,499
3.0169999999998254,-3926,636,7752,886,-269,-89,187,-112,500
3.0289999999999964,-3924,812,7868,894,-208,-47,185,-122,496
3.050999999999931,-3718,874,7000,977,112,-79,176,-111,494
3.0729999999998654,-3606,1054,6808,949,94,-147,170,-110,488
3.084999999999809,-3638,1268,6738,932,84,-311,174,-118,487
3.106999999999971,-4642,1258,6734,866,79,-303,169,-96,490
3.1189999999999145,-4498,1204,7252,834,78,-356,161,-110,479
3.140999999999849,-3898,1444,7566,933,154,-316,165,-97,479
3.1529999999997926,-3460,1158,9812,1022,348,-321,167,-101,482
3.1749999999999545,-4600,1406,5772,1120,554,-707,179,-91,478
3.186999999999898,-4076,1696,6338,1057,1165,-628,170,-102,469
3.2089999999998327,-5396,1558,5538,969,805,-485,180,-110,460
3.2309999999999945,-4716,1790,5390,848,409,-264,178,-99,450
3.242999999999938,-4468,1792,5838,806,68,-247,182,-97,455
3.2649999999998727,-4132,2020,5852,775,0,-312,192,-92,457
3.2769999999998163,-4244,1924,5788,703,-67,-299,188,-98,444
3.298999999999978,-4324,2086,6402,731,29,-386,179,-96,447
3.310999999999922,-3992,2114,6122,746,152,-402,176,-98,451
3.3329999999998563,-4332,2172,5462,698,118,-483,180,-99,436
3.355000000000018,-4516,2218,5882,683,99,-506,180,-89,443
3.366999999999962,-4916,2110,5676,676,-45,-376,181,-101,442
3.3889999999998963,-3618,2130,5842,642,-245,-456,176,-88,447
3.40099999999984,-4640,2088,6196,659,-9,-619,185,-99,448
3.423000000000002,-4670,2202,5844,696,311,-599,188,-98,437
3.4349999999999454,-4714,2244,5536,677,446,-588,186,-103,430
3.45699999999988,-3798,2316,4684,773,934,-707,184,-101,430
3.4689999999998236,-5014,2196,5518,688,749,-840,192,-97,429
3.4909999999999854,-5060,2276,4576,734,209,-816,199,-99,417
3.51299999999992,-5016,2134,6086,764,510,-896,194,-110,412
3.5249999999998636,-6080,2088,4300,791,690,-947,188,-111,413
3.546999999999798,-5252,2108,4892,809,989,-895,194,-110,407
3.558999999999969,-6316,1986,4026,693,1060,-896,205,-108,411
3.5809999999999036,-5734,2202,4354,561,1139,-806,211,-120,395
3.602999999999838,-5748,2102,4376,620,1650,-940,222,-116,392
3.615000000000009,-6560,2000,3880,538,795,-913,221,-125,386
3.6369999999999436,-6568,1846,3468,480,418,-763,220,-121,377
3.6489999999998872,-5802,1920,3848,442,101,-812,222,-116,372
3.6709999999998217,-6588,1768,3542,422,67,-921,226,-132,376
3.6829999999999927,-6472,1744,3446,371,25,-878,220,-141,368
3.7049999999999272,-6858,1584,3542,333,166,-888,224,-135,366
3.716999999999871,-6778,1552,3414,319,222,-828,219,-135,374
3.7389999999998054,-6380,1568,3752,167,173,-708,230,-151,377
3.7609999999999673,-6134,1590,4144,236,5,-812,221,-140,366
3.772999999999911,-6120,1530,3912,300,-11,-881,222,-146,372
3.7949999999998454,-6818,1340,3484,286,40,-998,232,-149,372
3.811997999999903,-7350,1142,3426,183,157,-909,232,-159,365
3.8239999999998417,-6502,1236,3884,172,183,-927,239,-159,368
3.8460000000000036,-6872,1080,3974,235,86,-957,245,-170,371
3.8579999999999472,-6684,1010,3956,240,94,-889,244,-169,365
3.8799999999998818,-6698,980,3482,195,-69,-1003,236,-183,362
3.9019999999998163,-7394,656,3646,198,-123,-1053,234,-177,358
3.9139999999999873,-7234,496,3390,105,1,-972,236,-191,362
3.935999999999922,-6810,482,3744,37,13,-1019,247,-189,360
3.9479999999998654,-7644,380,4492,20,-43,-1073,236,-201,359
3.9699999999998,-7886,50,4464,110,-19,-1018,249,-205,360
3.981999999999971,-7982,-158,4404,155,57,-982,249,-199,365
4.003999999999905,-7258,-94,4416,279,650,-923,245,-218,364
4.02599999999984,-7936,-266,3250,178,44,-1036,250,-221,362
4.038000000000011,-7728,-252,3866,90,69,-943,247,-222,346
4.059999999999945,-7668,-560,5158,92,245,-942,254,-230,356
4.071999999999889,-8060,-570,4120,88,139,-943,253,-224,357
4.093999999999824,-8026,-424,4620,191,189,-822,253,-231,359
4.1059999999999945,-8100,-810,3646,165,-32,-763,257,-231,357
4.127999999999929,-7460,-730,3268,166,41,-727,257,-246,355
4.139999999999873,-7038,-676,2816,76,146,-829,255,-251,362
4.161999999999807,-7234,-662,2686,87,7,-811,260,-256,352
4.183999999999969,-7640,-888,3152,-31,-53,-793,263,-258,358
4.195999999999913,-7436,-958,3534,-123,-11,-702,262,-259,352
4.217999999999847,-7214,-1088,4184,-127,-145,-749,270,-254,357
4.230000000000018,-6976,-980,4492,-54,-255,-745,274,-264,369
4.251999999999953,-7068,-1172,4068,-26,-287,-721,276,-253,368
4.273999999999887,-7194,-1420,3930,-41,-382,-768,284,-259,359
4.285999999999831,-7352,-1560,4320,-94,-224,-741,286,-269,369
4.307999999999993,-6984,-1508,4572,-76,-316,-774,288,-260,384
4.319999999999936,-7112,-1620,4870,-49,-284,-717,303,-272,390
4.341999999999871,-7482,-1836,4078,46,-358,-781,312,-265,389
4.3539999999998145,-7126,-1878,4262,-3,-254,-742,324,-270,394
4.375999999999976,-7054,-1964,5004,-23,-194,-765,337,-261,414
4.38799999999992,-6420,-2058,4342,155,-314,-784,346,-263,427
4.4099999999998545,-6982,-2248,3376,150,-416,-802,370,-263,439
4.421999999999798,-6326,-2428,2892,-40,-341,-775,380,-273,449
4.44399999999996,-5802,-2558,3750,-204,-372,-908,408,-277,500
4.4659999999998945,-6802,-2672,3756,-137,-591,-977,432,-287,517
4.477999999999838,-6930,-2734,3858,-197,-677,-884,463,-289,555
4.5,-7012,-2820,4340,-297,-572,-800,490,-292,589
4.511999999999944,-6638,-2902,4746,-373,-481,-815,560,-337,699
4.533999999999878,-6590,-2944,5766,-362,-476,-832,594,-358,754
4.545999999999822,-5982,-2984,5956,-236,-468,-779,639,-382,819
4.567999999999984,-6158,-3084,5548,-67,-687,-822,667,-429,900
4.589999999999918,-6446,-3438,4646,-20,-740,-831,690,-549,1090
4.601999999999862,-6320,-3556,4278,-148,-635,-738,674,-608,1179
4.623999999999796,-6352,-3600,5334,-285,-489,-752,647,-682,1284
4.635999999999967,-5670,-3494,6028,-158,-514,-748,599,-753,1373
4.657999999999902,-6094,-3766,5856,-69,-578,-743,437,-915,1516
4.669999999999845,-6032,-3888,5964,-63,-570,-667,313,-975,1538
4.692000000000007,-5474,-3940,5800,-22,-647,-645,182,-1013,1535
4.713999999999942,-5984,-4092,6150,0,-719,-671,54,-1031,1490
4.725999999999885,-6128,-4116,6080,-30,-676,-590,-171,-994,1341
4.74799999999982,-5928,-4002,6520,70,-743,-487,-250,-955,1229
4.759999999999991,-5800,-3988,6568,180,-791,-427,-293,-916,1130
4.781999999999925,-5676,-3930,6478,210,-808,-299,-320,-844,1017
4.793999999999869,-4738,-3768,6632,173,-796,-251,-320,-758,849
4.8159999999998035,-4572,-3882,7018,161,-871,-323,-314,-711,781
4.8279999999999745,-4946,-3938,7750,271,-965,-385,-293,-663,710
4.849999999999909,-4922,-3982,7684,455,-1061,-307,-271,-635,662
4.871999999999844,-5310,-3990,6496,451,-1084,-291,-213,-567,595
4.8840000000000146,-5730,-3998,6476,316,-1248,-95,-196,-551,571
4.905999999999949,-4938,-3734,7212,283,-1098,85,-161,-535,553
4.917999999999893,-4654,-3620,6790,371,-1468,166,-140,-513,542
4.939999999999827,-3646,-3436,7078,437,-1143,135,-108,-501,535
4.951999999999998,-4566,-3356,6628,460,-1201,116,-101,-478,523
4.973999999999933,-3570,-3106,7558,505,-1103,142,-84,-491,523
4.995999999999867,-3188,-2786,7250,622,-1227,20,-76,-479,522
5.007999999999811,-3436,-2870,6970,655,-1449,11,-61,-469,524
5.029999999999973,-3788,-2878,6790,543,-1532,42,-66,-461,527
5.041999999999916,-2694,-2836,8012,500,-1584,116,-55,-465,523
5.063999999999851,-2142,-2784,8466,617,-1383,-178,-52,-446,519
5.0759999999997945,-3152,-2978,8342,733,-1380,-264,-59,-439,531
5.097999999999956,-2952,-2866,8746,802,-1043,-180,-50,-435,528
5.1099999999999,-2854,-2802,7896,889,-1138,-189,-50,-435,537
5.1319999999998345,-3158,-2728,7980,857,-995,-144,-58,-425,542
5.153999999999996,-3058,-2560,7986,786,-959,-28,-49,-418,551
5.16599999999994,-2904,-2414,8662,866,-833,24,-58,-412,561
5.1879999999998745,-2816,-2246,8570,939,-827,176,-64,-406,562
5.199999999999818,-2414,-1944,8096,1014,-1013,245,-55,-405,568
5.22199999999998,-2368,-1892,7980,995,-1287,448,-70,-397,573
5.233999999999924,-2142,-1848,8292,915,-1434,553,-71,-388,570
5.255999999999858,-1140,-1516,6562,832,-1404,729,-67,-384,580
5.277999999999793,-1160,-1868,7784,634,-1499,842,-71,-380,582
5.289999999999964,-96,-2106,5162,664,-1847,568,-85,-365,594
5.311999999999898,-774,-1400,8096,575,-1745,407,-81,-355,603
5.323999999999842,-934,-1658,8678,500,-1688,440,-94,-356,595
5.346000000000004,-614,-1450,8702,598,-1102,319,-100,-353,598
5.357999999999947,-794,-1478,8532,555,-820,520,-102,-353,601
5.379999999999882,1076,-1236,8356,567,-775,514,-116,-354,597
5.401999999999816,1372,-1020,8018,595,-989,266,-111,-336,602
5.413999999999987,512,-1066,8290,508,-1031,229,-111,-331,604
5.435999999999922,352,-1074,8020,518,-814,274,-127,-332,596
5.447999999999865,488,-1098,8288,560,-857,368,-124,-335,606
5.4699999999998,1296,-1246,7778,610,-1001,349,-128,-329,609
5.481999999999971,854,-1218,7240,642,-963,166,-127,-327,603
5.503999999999905,568,-1204,7230,591,-700,196,-152,-313,612
5.515999999999849,28,-1146,7470,494,-659,334,-138,-311,607
5.538000000000011,1168,-906,8096,473,-421,511,-139,-305,622
5.559999999999945,1626,-776,8328,612,-663,484,-152,-301,604
5.571999999999889,1436,-652,7998,678,-901,493,-155,-296,604
5.593999999999824,2054,-304,7348,725,-764,643,-156,-297,613
5.6059999999999945,2434,-354,7760,773,-545,549,-152,-288,604
5.627999999999929,2998,116,7200,796,-154,224,-151,-279,606
5.639999999999873,1368,114,6314,710,-133,215,-162,-275,612
5.661999999999807,1892,312,6548,501,-82,283,-159,-278,619
5.683999999999969,1888,384,6808,414,-152,335,-155,-268,607
5.695999999999913,1830,404,7052,267,-341,390,-151,-267,615
5.717999999999847,1854,394,7218,251,-247,404,-161,-259,615
5.730000000000018,1910,426,7202,161,-65,400,-167,-263,623
5.751999999999953,1732,316,7260,101,-44,474,-170,-251,620
5.763999999999896,2778,278,7732,51,-271,501,-158,-264,617
5.785999999999831,2466,160,8012,94,-401,422,-152,-263,619
5.8129979999998795,2340,106,8096,92,-310,422,-168,-264,617
5.824999999999818,2350,22,7814,142,-172,451,-169,-253,609
5.836999999999989,2612,24,7948,113,-212,454,-157,-268,607
5.858999999999924,2544,18,8056,176,-211,414,-165,-261,617
5.870999999999867,2832,20,7772,149,-220,442,-161,-261,610
5.892999999999802,2802,220,7616,147,-278,335,-163,-254,610
5.904999999999973,2264,216,7568,87,-153,390,-169,-260,614
5.926999999999907,2322,318,7876,89,-72,390,-161,-254,613
5.948999999999842,2258,304,8148,125,-96,465,-153,-261,622
5.961000000000013,2620,362,7612,217,-186,489,-159,-263,614
5.982999999999947,2490,212,7238,146,-224,531,-156,-249,608
5.994999999999891,2828,338,7468,76,-200,533,-155,-255,600
6.016999999999825,2552,332,6954,59,-99,487,-159,-258,616
6.028999999999996,2190,334,6852,-37,-156,518,-165,-254,601
6.050999999999931,2648,392,7334,-63,-91,566,-168,-256,608
6.0629999999998745,2388,204,7086,-35,-263,580,-158,-256,613
6.084999999999809,2426,306,6944,-112,-396,617,-153,-251,620
6.106999999999971,2130,136,7322,-126,-376,698,-159,-250,607
6.1189999999999145,2866,156,7258,-184,-207,766,-170,-264,594
6.140999999999849,1964,132,7150,-186,-293,712,-167,-263,604
6.152999999999793,2306,-12,7492,-281,-303,885,-164,-265,597
6.1749999999999545,2800,-246,8084,-240,-318,895,-157,-273,602
6.186999999999898,2680,-518,8520,-185,-393,909,-162,-265,607
6.208999999999833,3466,-576,8568,-56,-213,938,-161,-264,596
6.2309999999999945,3158,-540,7844,34,-339,823,-152,-270,607
6.242999999999938,2826,-608,7142,-6,-279,896,-158,-269,608
6.264999999999873,3018,-760,6910,-110,-149,963,-162,-283,609
6.276999999999816,3430,-842,7436,-204,-46,950,-163,-284,606
6.298999999999978,3082,-1010,8060,-142,-98,921,-148,-272,603
6.310999999999922,3730,-1046,7982,-24,-49,934,-157,-278,602
6.332999999999856,3068,-1278,7298,33,-72,844,-157,-280,595
6.355000000000018,3110,-1230,6980,-16,-60,890,-148,-279,606
6.366999999999962,3166,-1388,7086,-38,-16,926,-147,-275,600
6.388999999999896,3184,-1344,6738,-30,38,896,-141,-274,598
6.40099999999984,3164,-1386,6448,-104,-17,871,-151,-274,606
6.423000000000002,3018,-1508,6800,-156,34,889,-145,-283,600
6.434999999999945,2914,-1618,6940,-201,-11,849,-139,-282,601
6.45699999999988,2232,-1814,7160,-192,-27,974,-131,-282,606
6.468999999999824,2956,-1832,7260,-153,31,1042,-134,-274,606
6.4909999999999854,2516,-1904,6790,-185,160,989,-125,-283,600
6.51299999999992,3056,-1958,7116,-331,310,1106,-122,-287,603
6.524999999999864,2822,-2246,7122,-407,197,1006,-122,-289,601
6.546999999999798,2620,-2254,7738,-308,84,1018,-111,-293,607
6.558999999999969,1998,-2584,7734,-239,135,1021,-113,-298,597
6.580999999999904,3040,-2482,7894,-163,420,1126,-100,-299,613
6.592999999999847,2772,-2482,6774,-128,578,945,-104,-301,597
6.615000000000009,3038,-2616,6922,-147,562,963,-96,-298,607
6.636999999999944,2872,-2744,7520,-326,459,809,-84,-298,614
6.648999999999887,2516,-2806,8552,-225,457,816,-93,-292,610
6.670999999999822,2264,-2864,8346,-139,260,847,-82,-283,609
6.682999999999993,2618,-2856,8234,-4,357,856,-71,-297,603
6.704999999999927,2568,-2658,6934,12,338,745,-70,-298,607
6.716999999999871,2380,-2710,6600,-134,298,676,-60,-291,597
6.738999999999805,2568,-2804,7128,-276,308,657,-59,-302,598
6.760999999999967,1904,-3054,8116,-413,256,670,-61,-299,598
6.772999999999911,2124,-3076,8508,-280,326,715,-61,-292,601
6.794999999999845,1702,-3130,8264,-147,337,704,-54,-297,598
6.807000000000016,1656,-3094,7968,-108,462,772,-49,-305,596
6.828999999999951,2118,-3092,7314,-103,545,687,-42,-294,598
6.8409999999998945,1666,-2994,7648,-170,616,565,-37,-312,601
6.862999999999829,1414,-3144,7594,-165,694,546,-48,-301,600
6.875,1048,-3070,8130,-216,708,523,-35,-302,594
6.8969999999999345,914,-3258,8136,-124,812,608,-26,-306,592
6.918999999999869,1218,-3162,7908,-135,849,626,-23,-315,584
6.930999999999813,1062,-3114,8034,-159,757,593,-18,-312,574
6.9529999999999745,744,-3196,8588,-133,675,588,-19,-316,590
6.964999999999918,710,-3180,8520,22,795,525,-8,-317,579
6.986999999999853,472,-3222,7300,62,946,455,-13,-317,579
6.998999999999796,-222,-3270,7718,-120,850,502,-6,-327,574
7.020999999999958,556,-3062,7998,-69,876,499,-3,-337,572
7.042999999999893,-464,-3162,8246,-65,766,431,2,-341,578
7.054999999999836,-696,-3232,7850,-41,748,600,7,-361,580
7.076999999999998,-292,-3304,7282,-8,596,628,10,-370,574
7.088999999999942,-580,-3334,7394,-110,789,567,14,-374,568
7.110999999999876,-590,-3438,8144,-66,1102,505,9,-374,571
7.12299999999982,-998,-3496,7320,-104,1042,448,23,-396,582
7.144999999999982,-900,-3632,7570,-152,853,471,27,-413,584
7.156999999999925,-1338,-3768,7170,-261,771,538,39,-413,572
7.17899999999986,-808,-3774,7398,-376,690,651,48,-430,566
7.2009999999997945,-1282,-3886,7984,-471,686,594,77,-465,554
7.212999999999965,-1246,-3880,8066,-440,768,519,94,-486,549
7.2349999999999,-1188,-3828,9172,-369,1093,379,102,-492,548
7.246999999999844,-2474,-3922,7974,-279,1145,243,113,-513,535
7.2690000000000055,-2876,-4038,7950,-338,1139,631,147,-523,518
7.280999999999949,-1162,-3574,8552,-421,965,695,169,-531,499
7.302999999999884,-1030,-3222,8688,-323,1100,361,191,-531,485
7.324999999999818,-2826,-3492,9040,-321,777,299,204,-530,479
7.336999999999989,-2608,-3394,9114,6,682,400,225,-526,449
7.358999999999924,-2690,-3252,8436,91,903,302,234,-534,456
7.370999999999867,-2862,-3238,8488,214,642,376,240,-515,436
7.392999999999802,-3216,-3264,8230,335,453,368,256,-513,439
7.404999999999973,-3120,-3114,7692,452,285,424,276,-498,437
7.426999999999907,-3672,-3004,7930,410,342,450,283,-488,435
7.448999999999842,-3240,-2876,7948,534,413,482,289,-479,448
7.461000000000013,-2908,-2854,8134,581,441,430,296,-469,450
7.482999999999947,-3884,-3132,7816,682,375,411,312,-432,451
7.494999999999891,-3226,-2950,7818,692,364,539,316,-431,453
7.516999999999825,-3188,-2818,7292,690,329,497,316,-413,467
7.528999999999996,-2796,-2528,7894,638,361,455,312,-394,461
7.550999999999931,-3172,-2694,7690,691,200,386,331,-369,466
7.5629999999998745,-3600,-2338,8512,674,-59,275,323,-353,474
7.584999999999809,-3828,-2354,8812,818,-134,443,319,-346,480
7.606999999999971,-3296,-2264,8484,1011,61,326,306,-322,493
7.6189999999999145,-3108,-2226,8676,1065,144,389,301,-302,500
7.640999999999849,-2746,-1980,8018,1120,227,165,294,-287,512
7.652999999999793,-3330,-1940,8858,1102,200,220,290,-275,516
7.6749999999999545,-2902,-1448,8124,1230,90,131,288,-255,509
7.686999999999898,-3356,-1366,7948,1220,121,104,261,-243,521
7.708999999999833,-4010,-1360,7710,1297,392,55,253,-226,515
7.7309999999999945,-4688,-1216,6910,1049,491,215,247,-220,525
7.742999999999938,-3692,-962,8700,1113,375,391,240,-216,522
7.764999999999873,-4192,-894,7250,1214,408,186,234,-197,511
7.776999999999816,-3496,-352,8436,1072,869,247,228,-186,515
7.798999999999978,-4188,-380,6396,997,589,147,226,-173,505
7.815997999999809,-4150,-194,6700,836,553,270,222,-162,497
7.8279999999999745,-4554,-154,7564,816,339,233,211,-160,503
7.849999999999909,-4804,-114,8148,913,343,308,226,-163,491
7.871999999999844,-4768,8,7742,1047,425,284,210,-149,490
7.8840000000000146,-4748,-36,7054,1021,544,291,213,-146,487
7.905999999999949,-4680,206,6742,1049,672,253,207,-140,469
7.917999999999893,-4356,392,6426,981,1048,228,202,-140,467
7.939999999999827,-3818,838,6840,949,834,185,198,-131,463
7.951999999999998,-4828,538,5252,1145,970,85,193,-136,459
7.973999999999933,-4570,678,6888,944,528,230,215,-118,442
7.995999999999867,-4646,766,6422,1058,327,97,196,-129,439
8.00799999999981,-4512,1102,6390,945,351,129,205,-121,439
8.029999999999973,-4360,1188,5768,959,219,146,203,-111,432
8.041999999999916,-4118,1352,6664,885,91,118,188,-113,430
8.06399999999985,-4574,1316,5766,950,93,48,203,-111,430
8.075999999999794,-4364,1630,5738,853,72,-3,186,-111,427
8.097999999999956,-4218,1712,6136,730,-15,7,197,-107,424
8.1099999999999,-5220,1622,5792,766,-128,-92,202,-107,433
8.131999999999834,-4510,1874,6086,597,18,42,191,-108,420
8.153999999999996,-4594,1984,6014,699,-119,-114,188,-108,420
8.16599999999994,-4398,2084,6358,580,62,-21,193,-103,423
8.187999999999874,-4074,2134,6246,767,-183,-152,179,-103,423
8.199999999999818,-4498,2014,5644,683,-188,-193,193,-98,423
8.22199999999998,-4948,1962,6046,625,39,-241,192,-92,424
8.233999999999924,-4764,1978,6018,526,147,-205,197,-87,421
8.255999999999858,-4836,2126,6518,664,-34,-311,180,-97,417
8.277999999999793,-5468,1926,5724,757,-212,-337,199,-102,429
8.289999999999964,-5798,1996,5926,668,26,-256,185,-92,421
8.311999999999898,-5324,2186,5784,676,158,-244,184,-88,415
8.323999999999842,-5174,2330,5252,698,79,-254,184,-96,420
8.346000000000004,-4938,2504,5248,654,28,-276,181,-96,425
8.357999999999947,-4824,2450,5068,580,-87,-318,191,-98,423
8.379999999999882,-4776,2508,5260,595,-107,-463,197,-94,419
8.391999999999825,-4832,2528,5102,486,11,-494,184,-83,430
8.413999999999987,-5070,2446,5204,494,-165,-537,181,-83,425
8.435999999999922,-5410,2502,5754,492,-220,-525,193,-96,420
8.447999999999865,-5396,2408,4792,529,-320,-434,187,-102,424
8.4699999999998,-4806,2548,5176,429,-247,-422,190,-97,417
8.481999999999971,-4818,2626,5352,385,-212,-480,190,-97,412
8.503999999999905,-5142,2528,5102,451,-227,-512,188,-101,420
8.515999999999849,-4766,2554,4714,399,-58,-556,188,-96,427
8.538000000000011,-5688,2494,5012,315,-69,-559,191,-96,425
8.559999999999945,-4806,2636,5464,304,-51,-494,196,-103,430
8.571999999999889,-5218,2462,4892,392,-129,-548,197,-107,419
8.593999999999824,-4752,2528,5050,309,-55,-578,196,-111,427
8.605999999999995,-5112,2402,4516,327,-132,-671,185,-107,417
8.627999999999929,-5366,2404,4924,240,-17,-649,194,-110,431
8.639999999999873,-5104,2370,4968,244,35,-655,196,-121,430
8.661999999999807,-5340,2210,5062,249,-45,-678,194,-110,419
8.683999999999969,-5378,2186,5318,226,-2,-687,202,-122,424
8.695999999999913,-5356,2312,5030,223,19,-747,192,-122,419
8.717999999999847,-5582,2240,5222,214,21,-732,198,-124,425
8.730000000000018,-5190,2226,5496,223,-1,-753,204,-125,426
8.751999999999953,-6044,2088,4946,240,-35,-779,209,-132,419
8.763999999999896,-5320,2150,5802,177,26,-754,207,-135,426
8.78599999999983,-5668,2014,5416,292,-54,-796,205,-139,423
8.798000000000002,-6102,2032,5494,246,8,-822,208,-129,430
8.819999999999936,-5704,1930,5530,200,176,-788,192,-140,431
8.84199999999987,-5958,1782,5592,305,61,-822,210,-146,423
8.853999999999814,-6032,1918,5618,313,141,-833,210,-144,430
8.875999999999976,-6258,1736,4952,324,164,-821,210,-151,415
8.88799999999992,-6104,1668,5384,314,181,-772,217,-156,425
8.909999999999854,-6108,1642,5246,333,83,-796,216,-148,433
8.921999999999798,-6076,1544,4954,335,79,-805,219,-155,426
8.94399999999996,-6342,1652,5356,332,146,-828,221,-153,421
8.965999999999894,-6384,1558,4976,312,106,-844,228,-168,412
8.977999999999838,-6324,1594,4448,295,161,-824,222,-172,423
9.0,-6918,1470,4052,226,76,-834,224,-163,419
9.011999999999944,-6728,1332,4578,164,77,-773,213,-177,423
9.033999999999878,-7042,1304,4472,143,4,-745,225,-169,425
9.045999999999822,-6742,1378,4784,155,39,-756,234,-184,430
9.067999999999984,-6670,1294,5120,118,18,-702,232,-189,415
9.089999999999918,-6976,1144,4516,176,-77,-728,231,-188,419
9.101999999999862,-7170,900,4426,61,17,-659,232,-192,423
9.123999999999796,-6386,880,4530,-6,101,-636,236,-196,426
9.135999999999967,-6578,870,5374,8,54,-684,237,-205,425
9.157999999999902,-6668,732,5010,122,-94,-673,237,-189,425
9.169999999999845,-6618,652,4582,44,-13,-634,243,-208,421
9.192000000000007,-6248,690,4862,-65,28,-672,250,-216,431
9.20399999999995,-6390,632,4856,-38,60,-720,231,-206,421
9.225999999999885,-6772,682,4910,-57,26,-724,254,-212,415
9.24799999999982,-6558,658,4986,-118,-97,-662,249,-230,423
9.259999999999991,-6524,476,4608,3,-393,-687,257,-221,419
9.281999999999925,-6478,266,4160,-113,-434,-694,254,-217,430
9.293999999999869,-6130,96,4974,-282,-229,-765,256,-232,435
9.315999999999804,-6536,-36,5396,-287,-167,-785,270,-231,433
9.327999999999975,-6624,-264,5594,-258,-235,-814,261,-232,439
9.349999999999909,-6526,-396,6226,-210,-251,-798,260,-234,445
9.371999999999844,-7148,-688,5298,-51,-343,-765,261,-250,444
9.384000000000015,-6698,-808,4668,-97,-309,-692,267,-259,455
9.405999999999949,-6734,-822,4918,-210,-194,-718,273,-253,459
9.417999999999893,-6818,-856,5006,-269,-164,-688,274,-264,476
9.439999999999827,-6534,-950,5298,-317,-115,-645,283,-268,475
9.451999999999998,-5336,-544,5872,-311,-136,-667,294,-269,493
9.473999999999933,-6068,-996,5214,-250,-311,-669,289,-287,491
9.495999999999867,-6466,-1156,5548,-292,-359,-682,296,-284,505
9.50799999999981,-6258,-1202,5994,-271,-195,-651,314,-293,502
9.529999999999973,-6328,-1284,5872,-158,-101,-713,310,-306,533
9.541999999999916,-6678,-1408,5886,-190,-59,-641,326,-316,535
9.56399999999985,-6238,-1358,6454,-88,-126,-633,333,-320,548
9.575999999999794,-6318,-1354,6352,62,-370,-648,328,-332,562
9.597999999999956,-7128,-1638,5990,137,-482,-616,328,-355,586
9.61999999999989,-6700,-1706,5716,126,-350,-512,320,-360,603
9.631999999999834,-6124,-1650,5910,93,-203,-523,307,-369,609
9.653999999999996,-6594,-1670,5530,88,-264,-592,291,-391,634
9.66599999999994,-6460,-1658,5932,90,-227,-528,278,-402,643
9.687999999999874,-6838,-1724,5696,143,-349,-477,277,-418,653
9.699999999999818,-6340,-1690,5624,131,-321,-399,261,-410,655
9.72199999999998,-5982,-1724,5468,134,-356,-400,249,-420,662
9.734290999999985,-5726,-1572,5534,104,-368,-412,220,-450,659
9.755999999999858,-5832,-1608,5586,55,-438,-419,210,-437,662
9.777999999999793,-5608,-1664,6048,44,-419,-432,192,-436,656
9.789999999999964,-5260,-1662,5978,107,-463,-464,182,-444,670
9.816998000000012,-5756,-1754,6098,83,-494,-474,155,-460,655
9.82899999999995,-5372,-1778,6016,69,-539,-431,156,-469,653
9.840999999999894,-5198,-1802,6600,5,-458,-451,131,-456,649
9.862999999999829,-5090,-1812,6964,33,-555,-543,122,-464,649
9.875,-4770,-1782,7194,174,-783,-554,102,-464,646
9.896999999999935,-5418,-2078,6886,247,-957,-589,92,-463,640
9.918999999999869,-4976,-1988,6762,190,-966,-561,76,-464,632
9.930999999999813,-4986,-2040,7416,105,-921,-615,65,-458,628
9.952999999999975,-4708,-2144,7644,189,-434,-452,42,-444,608
9.964999999999918,-4906,-2172,8070,305,-575,-490,37,-451,613
9.986999999999853,-4466,-2130,7572,457,-701,-467,35,-449,603
9.998999999999796,-4772,-2298,7442,460,-814,-455,36,-427,588
10.020999999999958,-4898,-2324,7682,450,-753,-453,35,-421,594
10.033290999999963,-4360,-2154,7684,483,-1028,-412,23,-423,572
10.055999999999813,-4446,-2200,7816,555,-1296,-454,15,-413,579
10.077999999999975,-4574,-2274,8062,569,-1229,-433,15,-416,582
10.089999999999918,-4744,-2266,8376,599,-1057,-396,3,-411,570
10.111999999999853,-4642,-2182,8124,651,-916,-286,2,-389,568
10.123999999999796,-3424,-1892,8390,595,-820,-191,-2,-392,571
10.145999999999958,-3360,-1780,7992,744,-1138,-328,9,-397,576
10.157999999999902,-3492,-1632,8394,800,-1051,-261,1,-388,582
10.179999999999836,-3490,-1544,7814,813,-1171,-275,-12,-377,592
10.192000000000007,-3428,-1436,7716,725,-1130,-169,-9,-379,583
10.213999999999942,-3518,-1258,7810,630,-1106,-106,-20,-373,589
10.235999999999876,-2642,-1132,7500,561,-1371,36,-21,-359,585
10.24799999999982,-3228,-1222,7252,457,-1656,72,-31,-356,585
10.269999999999982,-2262,-1016,8124,407,-1452,74,-30,-348,601
10.281999999999925,-3062,-1064,7844,425,-1454,152,-35,-353,598
10.30399999999986,-2100,-758,8226,345,-1365,158,-42,-345,601
10.315999999999804,-2248,-842,8514,420,-1167,126,-52,-340,596
10.337999999999965,-2446,-786,8500,438,-1103,185,-53,-329,604
10.3599999999999,-1076,-522,8630,472,-995,200,-56,-327,601
10.371999999999844,-1230,-530,8996,518,-915,91,-75,-321,597
10.394000000000005,-1214,-398,8866,555,-811,121,-78,-325,606
10.405999999999949,-1352,-368,8416,597,-702,159,-82,-316,604
10.427999999999884,-996,-342,8258,605,-669,196,-84,-313,607
10.439999999999827,-1194,-324,8270,563,-721,200,-89,-311,621
10.461999999999989,-1200,-248,8410,587,-636,272,-90,-299,615
10.483999999999924,-1412,-46,7924,679,-543,275,-93,-294,617
10.495999999999867,-616,-24,7802,618,-670,556,-95,-297,613
10.517999999999802,-898,-190,7712,518,-1087,420,-84,-288,614
10.529999999999973,-866,-54,7660,507,-1108,473,-98,-289,613
10.551999999999907,-1048,-12,7634,530,-1092,437,-110,-284,615
10.56399999999985,-680,34,7182,485,-890,534,-106,-278,609
10.586000000000013,-62,258,6942,413,-900,565,-117,-272,620
10.597999999999956,642,480,7444,324,-935,641,-115,-282,606
10.61999999999989,876,568,7164,333,-1054,547,-134,-269,617
10.641999999999825,1692,734,7518,321,-1148,497,-127,-256,625
10.653999999999996,1340,766,7084,322,-1178,446,-135,-265,616
10.67599999999993,1700,766,7250,232,-1115,498,-136,-254,622
10.687999999999874,2350,830,7242,152,-980,443,-148,-256,610
10.709999999999809,2550,788,7276,107,-1153,428,-147,-255,614
10.72199999999998,2480,164,2202,233,-2517,514,-153,-256,610
10.743999999999915,3140,656,8130,23,-1440,411,-163,-244,610
10.765999999999849,2820,714,7856,169,-1325,225,-181,-255,609
10.777999999999793,2358,546,7210,95,-1068,342,-182,-267,603
10.799999999999955,2670,572,7572,-4,-657,358,-197,-259,596
10.811999999999898,3074,660,7958,-8,-276,427,-205,-253,602
10.833999999999833,3272,682,7680,35,-480,384,-205,-258,602
10.846000000000004,2810,620,7304,57,-672,303,-214,-256,608
10.867999999999938,2938,606,7328,-7,-715,372,-203,-260,604
10.879999999999882,2600,522,7478,-9,-567,367,-204,-256,591
10.901999999999816,3062,538,7502,-18,-634,490,-204,-256,586
10.923999999999978,3406,472,7388,-15,-666,443,-214,-259,591
10.935999999999922,3306,426,7172,-3,-761,431,-210,-268,590
10.957999999999856,2918,230,7404,-15,-711,483,-226,-264,586
10.9699999999998,3302,228,7192,-14,-696,515,-225,-265,585
10.991999999999962,3754,232,6596,4,-1078,584,-230,-263,580
11.003999999999905,3256,156,7672,-21,-1006,596,-224,-264,574
11.02599999999984,4118,294,6668,-23,-828,616,-238,-264,579
11.048000000000002,3664,94,7230,-87,-690,628,-234,-258,573
11.059999999999945,3812,-52,7044,-20,-620,624,-242,-275,568
11.08199999999988,3638,-222,7230,-41,-346,630,-248,-274,572
11.093999999999824,4088,-266,7218,10,-280,741,-244,-275,568
11.115999999999985,4960,-132,6826,41,-647,675,-244,-278,564
11.127999999999929,3844,-340,6684,31,-750,653,-250,-269,574
11.149999999999864,3784,-384,6618,4,-586,730,-249,-273,561
11.171999999999798,4358,-380,6580,-32,-492,812,-250,-292,572
11.183999999999969,4822,-392,6590,13,-815,817,-243,-279,560
11.205999999999904,4274,-606,6480,23,-934,739,-251,-283,564
11.217999999999847,3796,-834,6056,58,-790,838,-256,-288,549
11.240000000000009,4536,-846,6202,90,-559,930,-257,-289,553
11.251999999999953,5168,-814,6018,88,-976,908,-249,-293,557
11.273999999999887,4804,-1078,6568,164,-1314,889,-265,-289,548
11.28599999999983,5408,-986,6294,156,-611,880,-260,-292,555
11.307999999999993,5460,-1108,5402,232,-508,837,-259,-296,542
11.329999999999927,5086,-1216,5798,191,-641,803,-267,-294,546
11.34199999999987,4944,-1436,5752,230,-664,895,-266,-303,552
11.363999999999805,5526,-1444,5926,274,-183,889,-265,-294,546
11.375999999999976,5578,-1412,5460,245,148,815,-256,-303,549
11.39799999999991,5322,-1390,5722,262,-41,755,-265,-310,553
11.409999999999854,4440,-1600,5416,269,-247,825,-260,-292,548
11.432000000000016,4678,-1698,5184,210,-89,964,-253,-307,548
11.45399999999995,5422,-1720,5234,144,-304,1055,-254,-296,545
11.465999999999894,4680,-1870,5626,118,-470,927,-260,-310,553
11.487999999999829,4422,-1992,5666,74,-353,1104,-257,-305,543
11.5,5328,-2064,5448,141,-461,1235,-259,-306,554
11.521999999999935,5442,-2152,5724,166,-646,1075,-253,-307,543
11.533999999999878,5106,-2512,5576,199,-336,1105,-254,-311,540
11.555999999999813,5636,-2574,5644,188,145,1050,-251,-313,552
11.568284999999833,5520,-2644,5320,222,392,887,-238,-322,553
11.589999999999918,5054,-2806,6054,158,361,899,-233,-312,551
11.611999999999853,5668,-2838,6590,331,132,1023,-237,-311,554
11.623999999999796,5442,-3066,5938,414,149,1009,-236,-315,551
11.645999999999958,5952,-2882,6024,384,-46,1052,-222,-301,561
11.657999999999902,5910,-2804,5666,432,-146,924,-219,-310,558
11.679999999999836,5220,-3068,5138,475,-115,773,-217,-311,564
11.692000000000007,5666,-2910,5858,272,326,785,-214,-315,572
11.713999999999942,5340,-3052,6228,238,281,876,-217,-311,559
11.735999999999876,5442,-2910,6788,279,261,878,-205,-306,573
11.74799999999982,5318,-2978,6844,466,231,924,-209,-307,572
11.769999999999982,5300,-3140,5880,508,331,906,-197,-310,560
11.781999999999925,5722,-3152,5468,435,248,837,-198,-303,580
11.80399999999986,5058,-3188,6014,300,440,658,-193,-313,573
11.820997999999918,4904,-3032,6702,310,600,659,-179,-306,568
11.832999999999856,4532,-3128,6376,351,858,631,-191,-303,561
11.855000000000018,4526,-3012,6570,380,616,705,-173,-307,572
11.876999999999953,3950,-3164,6674,360,560,693,-174,-301,573
11.888999999999896,4546,-3152,6328,420,716,755,-165,-302,572
11.91099999999983,4116,-3268,5934,271,747,659,-167,-303,573
11.923000000000002,4108,-3114,7060,236,900,673,-157,-306,571
11.944999999999936,3684,-3044,7392,312,861,624,-161,-307,574
11.95699999999988,3212,-3212,6752,379,765,751,-158,-312,579
11.978999999999814,4510,-3194,6268,345,570,740,-152,-306,578
12.000999999999976,3376,-3194,6928,221,696,602,-152,-313,583
12.01299999999992,3252,-3134,7308,233,1087,607,-151,-317,570
12.034999999999854,3644,-3048,7414,251,1336,613,-147,-318,576
12.046999999999798,3396,-2892,8072,205,917,557,-152,-329,580
12.06899999999996,2736,-3248,7982,293,795,487,-150,-339,588
12.080999999999904,2414,-3156,7590,387,820,551,-140,-346,600
12.102999999999838,3154,-3238,7842,327,899,627,-147,-354,595
12.125,3228,-3140,8308,391,1134,370,-139,-355,603
12.136999999999944,2512,-2942,8350,461,1073,368,-144,-365,615
12.158999999999878,2198,-2926,8046,531,856,354,-146,-375,632
12.170999999999822,1758,-3002,7652,500,847,414,-135,-387,638
12.192999999999984,1936,-2934,7770,476,936,446,-130,-399,638
12.204999999999927,2184,-2662,8362,471,1270,282,-117,-411,665
12.226999999999862,2554,-2416,8304,529,1707,49,-111,-415,678
12.248999999999796,688,-2662,7676,565,1458,45,-111,-425,695
12.260999999999967,1060,-2510,8018,489,885,341,-99,-427,698
12.282999999999902,1198,-2374,8748,421,784,376,-65,-432,731
12.294999999999845,852,-2352,8334,563,887,244,-58,-427,743
12.317000000000007,544,-2152,8098,501,792,324,-47,-421,749
12.32899999999995,896,-1972,8122,511,710,256,-33,-425,769
12.350999999999885,512,-1866,8416,496,949,167,-3,-421,787
12.362999999999829,-98,-1926,8850,493,963,203,6,-421,792
12.384999999999991,-628,-1972,8116,548,764,234,35,-413,811
12.406999999999925,-486,-1820,8920,507,728,384,52,-391,809
12.418999999999869,-556,-1648,8554,542,657,463,75,-372,827
12.440999999999804,-128,-1442,8972,557,649,418,102,-368,821
12.452999999999975,6,-1296,9874,600,950,295,107,-345,828
12.474999999999909,-976,-1352,9210,491,717,278,124,-322,811
12.486999999999853,-756,-1438,10168,598,706,353,161,-292,792
12.509000000000015,-896,-1200,9314,952,374,496,168,-277,780
12.530999999999949,-208,-772,8382,849,450,352,165,-264,761
12.542999999999893,-712,-788,8882,663,872,282,159,-235,733
12.564999999999827,-640,-698,8890,592,1170,124,167,-220,712
12.576999999999998,-650,-430,9174,777,941,239,175,-201,694
12.598999999999933,-750,-380,8684,807,923,221,185,-188,687
12.610999999999876,-984,-196,8876,807,1276,99,169,-177,662
12.63299999999981,-1976,-410,8262,840,1351,199,176,-164,633
12.644999999999982,-800,-22,7506,900,1057,264,165,-158,615
12.666999999999916,-1040,-144,7872,769,739,131,175,-158,610
12.68899999999985,-3302,-292,7836,695,736,-40,179,-144,597
12.700999999999794,-3106,82,9020,644,462,348,163,-132,572
12.722999999999956,-2112,204,8616,780,221,418,162,-131,576
12.7349999999999,-2158,234,8588,732,96,362,156,-122,562
12.756999999999834,-2422,212,8004,600,278,253,156,-125,560
12.769000000000005,-2600,350,9226,494,310,301,150,-118,535
12.79099999999994,-2386,508,9652,657,199,309,135,-111,547
12.812999999999874,-2654,406,9926,875,73,277,142,-106,535
12.824999999999818,-2752,358,8776,834,205,386,135,-118,542
12.84699999999998,-2218,484,9556,733,385,336,123,-113,523
12.858999999999924,-2300,598,9988,827,506,341,124,-112,522
12.880999999999858,-1314,814,9328,1049,249,293,135,-118,516
12.892999999999802,-2776,546,9684,1099,190,157,119,-107,517
12.914999999999964,-2490,628,8658,1247,482,193,122,-99,510
12.926999999999907,-2522,860,7886,1194,581,153,119,-102,512
12.948999999999842,-2506,820,7756,1150,584,219,119,-97,500
12.971000000000004,-2562,952,7558,1168,526,177,121,-91,506
12.982999999999947,-2804,982,6676,1167,592,211,124,-82,498
13.004999999999882,-1658,1348,6820,1089,591,234,130,-86,494
13.016999999999825,-1982,1678,7012,1038,638,139,122,-72,481
13.038999999999987,-1026,2088,7406,966,806,50,134,-82,479
13.05099999999993,-1900,2240,6732,1077,770,-193,131,-67,479
13.072999999999865,-3046,2414,5670,1004,717,-172,133,-70,466
13.0949999999998,-2762,2750,5704,851,565,-70,127,-59,474
13.106999999999971,-3094,2784,6158,732,535,-67,136,-64,460
13.128999999999905,-2938,3008,6302,693,568,-95,135,-58,461
13.140999999999849,-3232,3038,6190,725,456,-110,138,-73,459
13.163000000000011,-3464,3156,5904,725,346,-149,138,-55,451
13.174999999999955,-3626,3312,5688,725,270,-126,147,-55,449
13.196999999999889,-3556,3552,5876,658,396,-127,147,-50,449
13.218999999999824,-3306,3822,5988,764,188,-54,147,-58,447
13.230999999999995,-2872,3658,5236,800,-256,-143,144,-56,443
13.252999999999929,-3834,3616,4908,576,-150,-242,147,-55,447
13.264999999999873,-3018,3790,6222,412,47,-206,146,-59,443
13.286999999999807,-3196,3928,6952,480,111,-360,141,-51,438
13.298999999999978,-3902,3798,6538,639,-13,-397,151,-46,438
13.320999999999913,-3822,3700,6336,681,-12,-317,142,-50,442
13.332999999999856,-3462,3872,6090,693,204,-380,152,-40,435
13.355000000000018,-3482,3898,5784,739,192,-395,146,-49,433
13.376999999999953,-3102,3814,5548,729,52,-476,136,-51,441
13.388999999999896,-3480,3658,5888,742,-45,-572,147,-48,430
13.41099999999983,-3632,3494,5098,759,242,-585,158,-46,438
13.423000000000002,-3386,3558,4870,662,129,-606,158,-46,431
13.444999999999936,-3028,3392,4236,649,35,-765,151,-49,426
13.45699999999988,-3960,3240,4160,413,31,-815,158,-46,426
13.478999999999814,-3150,3426,4920,364,142,-838,158,-46,426
13.500999999999976,-3598,3364,4488,343,-29,-993,167,-55,425
13.51299999999992,-4760,2970,4722,371,-167,-932,155,-60,418
13.534999999999854,-4544,3036,4076,318,8,-852,161,-51,426
13.546999999999798,-3038,3414,4442,252,268,-959,169,-63,420
13.56899999999996,-4594,3120,4082,211,123,-1184,162,-55,432
13.580999999999904,-4866,3388,4488,115,101,-1104,169,-68,427
13.602999999999838,-4764,3462,4754,107,144,-1071,167,-68,420
13.615000000000009,-4294,3554,5320,131,194,-1113,180,-79,429
13.636999999999944,-5142,3422,4524,91,117,-1275,174,-73,425
13.658999999999878,-6064,3118,5096,84,-77,-1172,169,-91,418
13.670999999999822,-5718,3002,4680,83,-59,-1098,184,-81,411
13.692999999999984,-5822,2916,5130,22,-67,-1055,188,-101,420
13.704999999999927,-5876,2806,5286,61,-234,-1057,180,-94,419
13.726999999999862,-6252,2662,5140,73,-350,-984,180,-89,424
13.738999999999805,-6012,2572,5018,131,-325,-979,190,-107,414
13.760999999999967,-6376,2276,3744,37,-178,-967,193,-113,425
13.782999999999902,-5878,2350,4380,-144,-50,-989,188,-118,423
13.794999999999845,-6420,2228,5224,-185,-106,-909,193,-113,423
13.821997999999894,-5556,2462,5780,-87,-211,-858,196,-124,427
13.833999999999833,-5578,2476,4774,44,-382,-891,187,-127,421
13.846000000000004,-5962,2132,4028,-41,-310,-875,202,-140,431
13.867999999999938,-5416,1946,5212,-86,-12,-818,191,-144,432
13.879999999999882,-5798,1852,4882,-207,73,-880,192,-132,424
13.901999999999816,-5424,1742,5804,-100,-176,-897,192,-145,441
13.923999999999978,-6124,1532,5866,-72,-132,-879,201,-141,432
13.935999999999922,-5292,1632,5854,-29,-115,-793,199,-153,426
13.957999999999856,-5794,1434,5160,-6,-180,-896,190,-155,426
13.9699999999998,-5560,1410,5426,-97,-97,-892,215,-169,430
13.991999999999962,-5602,1346,5382,-106,-59,-966,205,-162,425
14.003999999999905,-6308,1250,6112,-118,-101,-969,204,-168,443
14.02599999999984,-5906,1190,6284,-49,-43,-934,201,-179,442
14.048000000000002,-6592,924,5830,29,-96,-963,201,-172,430
14.059999999999945,-6336,874,5490,46,-178,-854,211,-186,429
14.08199999999988,-6466,658,5426,-30,-228,-893,209,-180,421
14.093999999999824,-6552,546,5790,-38,-136,-899,207,-183,436
14.115999999999985,-6996,448,5962,-46,-47,-876,207,-188,441
14.127999999999929,-6414,428,5650,48,-53,-773,209,-196,438
14.149999999999864,-6810,376,5180,36,-177,-872,216,-208,441
14.161999999999807,-6508,412,5362,-1,-192,-673,207,-213,436
14.183999999999969,-6322,294,5064,-9,-282,-783,220,-207,451
14.205999999999904,-6422,226,5312,-95,-245,-750,226,-221,438
14.217999999999847,-6186,114,5566,-132,-232,-736,211,-216,441
14.240000000000009,-6256,108,5472,-104,-238,-769,222,-220,444
14.251999999999953,-6348,80,5718,-164,-210,-752,222,-222,442
14.273999999999887,-5928,62,5794,-158,-168,-708,222,-222,461
14.28599999999983,-5776,42,5934,-37,-390,-812,220,-220,447
14.307999999999993,-6080,-286,4890,-75,-306,-768,231,-234,450
14.329999999999927,-6088,-346,5070,-178,-234,-806,233,-229,457
14.34199999999987,-5918,-404,5896,-266,-295,-744,228,-231,464
14.363999999999805,-5508,-488,6030,-145,-568,-868,249,-230,466
14.375999999999976,-6404,-758,5878,-163,-653,-800,234,-227,466
14.39799999999991,-5612,-694,6228,-240,-528,-698,250,-218,481
14.409999999999854,-4972,-784,6324,-258,-735,-762,265,-226,491
14.432000000000016,-5376,-1146,6232,-272,-996,-873,263,-225,504
14.45399999999995,-6028,-1638,6122,-368,-1168,-826,270,-211,505
14.465999999999894,-6696,-2368,6748,-589,-1135,-779,296,-211,529
14.487999999999829,-6066,-2412,8208,-493,-1016,-599,302,-205,561
14.5,-5322,-2140,7948,-225,-784,-783,310,-199,580
14.521999999999935,-6218,-2470,6424,-111,-986,-714,330,-191,603
14.533999999999878,-6082,-2264,6062,-232,-729,-598,348,-194,676
14.555999999999813,-4916,-1788,6086,-323,-892,-438,375,-207,707
14.577999999999975,-4586,-1558,6488,-373,-1322,-507,391,-203,759
14.589999999999918,-4482,-1614,7576,-464,-1338,-447,402,-212,810
14.611999999999853,-4030,-1540,8422,-374,-1128,-414,422,-246,947
14.623999999999796,-3688,-1390,8286,-266,-1298,-457,423,-273,1008
14.645999999999958,-3284,-1656,8552,-137,-1417,-469,425,-315,1079
14.657999999999902,-3904,-1772,8300,-140,-1314,-513,403,-363,1148
14.679999999999836,-3122,-1780,8490,-162,-1322,-431,313,-441,1268
14.701999999999998,-3330,-1654,9482,-48,-1799,-397,268,-483,1298
14.713999999999942,-2658,-1656,9640,-13,-1585,-401,187,-522,1318
14.735999999999876,-1908,-1516,9816,172,-1708,-467,112,-545,1304
14.74799999999982,-2264,-1668,9386,278,-1717,-569,-46,-569,1238
14.769999999999982,-1818,-1492,9684,311,-1678,-569,-107,-563,1167
14.781999999999925,-1628,-1442,9344,370,-1537,-577,-156,-550,1093
14.80399999999986,-1258,-1508,9620,353,-1420,-554,-187,-520,1010
14.815999999999804,-140,-1218,9448,453,-1675,-605,-220,-486,886
14.837999999999965,-900,-1454,9808,475,-1638,-802,-226,-461,837
14.8599999999999,-1754,-1574,9470,555,-1470,-707,-211,-439,787
14.871999999999844,-654,-1452,9818,543,-974,-589,-217,-430,745
14.894000000000005,-820,-1548,10440,622,-578,-747,-198,-392,693
14.905999999999949,-1736,-1306,10070,813,-838,-614,-186,-387,674
14.927999999999884,-3512,-2040,9998,1068,-1904,22,-165,-370,653
14.939999999999827,-1308,-1364,7586,902,-1937,270,-159,-367,643
14.961999999999989,650,-848,7438,767,-1980,138,-152,-349,635
14.973999999999933,-270,-844,8160,476,-2000,-129,-158,-353,627
14.995999999999867,-796,-816,9034,496,-2031,-21,-164,-346,619
15.017999999999802,-712,-764,8430,581,-1988,195,-169,-336,619
15.029999999999973,-642,-732,8008,514,-2165,483,-181,-336,607
15.051999999999907,904,-428,8490,507,-2106,694,-184,-336,614
15.06399999999985,1714,-138,8066,526,-2076,554,-184,-324,607
15.086000000000013,1564,-224,7404,499,-2184,690,-205,-318,595
15.097999999999956,2398,-64,8894,467,-1973,768,-211,-327,606
15.11999999999989,2840,-26,7154,430,-1456,559,-215,-324,590
15.141999999999825,2160,-504,7330,335,-2029,754,-219,-317,591
15.153999999999996,3440,-416,8570,273,-1944,718,-221,-320,596
15.17599999999993,3502,-508,8878,256,-929,452,-230,-313,585
15.187999999999874,3364,-408,8660,468,-574,278,-239,-318,580
15.209999999999809,2466,-632,8536,629,-586,291,-248,-307,579
15.22199999999998,3336,-592,7332,782,-484,476,-237,-308,578
15.243999999999915,3566,-506,6910,735,-581,399,-249,-311,583
15.255999999999858,2892,-344,6540,754,-754,351,-233,-297,577
15.277999999999793,2924,-346,6702,611,-440,454,-244,-306,588
15.299999999999955,3682,-228,7364,603,-138,512,-249,-291,583
15.311999999999898,3794,-334,7142,785,-117,508,-242,-293,585
15.333999999999833,3444,-56,6300,745,-250,618,-240,-287,579
15.346000000000004,2690,-62,7002,677,-256,677,-245,-274,574
15.367999999999938,3502,42,6354,777,-441,954,-239,-270,583
15.379999999999882,4682,160,5606,672,-613,829,-231,-284,584
15.401999999999816,4578,148,5634,512,-716,675,-247,-268,595
15.423999999999978,4702,78,6080,398,-611,497,-243,-267,579
15.435999999999922,4218,166,6446,329,-380,495,-247,-275,588
15.457999999999856,4118,104,6742,356,-209,570,-247,-263,578
15.4699999999998,4394,-20,6716,331,-145,586,-248,-272,579
15.491999999999962,4548,-184,6496,374,-233,651,-251,-270,580
15.503999999999905,5304,-44,6138,285,-415,557,-248,-277,582
15.52599999999984,4204,-116,6942,244,-275,426,-242,-270,583
15.548000000000002,4426,-212,6570,282,-60,553,-243,-274,582
15.559999999999945,4934,-402,6754,250,-24,591,-249,-270,585
15.58199999999988,5292,-288,6786,257,-240,461,-243,-269,579
15.593999999999824,4696,-296,6830,313,-319,349,-243,-259,574
15.615999999999985,3878,-436,6860,280,-251,389,-243,-269,574
15.627999999999929,4210,-248,6718,260,-210,544,-240,-251,567
15.649999999999864,3856,-434,7024,272,-124,687,-244,-270,580
15.661999999999807,5208,-174,6294,285,-202,738,-247,-255,578
15.683999999999969,4312,-310,6510,231,-382,605,-243,-249,565
15.705999999999904,3518,-350,6272,251,-372,681,-238,-259,582
15.717999999999847,4014,-556,6098,221,-264,859,-240,-261,574
15.740000000000009,4200,-516,5848,179,-326,843,-242,-258,566
15.751999999999953,4136,-850,6264,94,-248,956,-236,-259,570
15.773999999999887,5214,-740,6278,91,-293,976,-244,-278,568
15.78599999999983,4596,-922,5846,32,-402,847,-243,-267,570
15.807999999999993,4520,-770,6272,2,-531,858,-234,-273,564
15.824997999999823,3816,-974,6254,78,-485,961,-231,-269,565
15.84699999999998,4554,-1194,5688,92,-283,1185,-242,-270,566
15.858999999999924,5086,-1548,5830,15,41,1245,-236,-272,555
15.880999999999858,6532,-1548,5410,-62,-116,1172,-236,-269,562
15.892999999999802,6296,-1586,6004,-201,-439,896,-238,-277,565
15.914999999999964,4772,-1772,6776,-127,-484,811,-228,-287,567
15.926999999999907,4974,-1786,6400,-6,-328,1013,-230,-293,568
15.948999999999842,5120,-1720,5866,64,-146,1003,-237,-288,561
15.971000000000004,4900,-1882,5666,24,-113,1071,-237,-283,559
15.982999999999947,5746,-2026,5394,3,-56,1111,-225,-296,568
16.00499999999988,5998,-2054,5296,-96,-316,897,-227,-298,564
16.016999999999825,4784,-2080,5452,-123,-480,815,-216,-292,558
16.038999999999987,4330,-2056,5410,-111,-382,923,-233,-302,553
16.05099999999993,4522,-2208,5262,-52,-271,991,-224,-299,536
16.072999999999865,4972,-2390,4936,-100,-228,1079,-221,-299,553
16.0949999999998,4984,-2522,5060,-133,-349,1024,-214,-305,546
16.10699999999997,5224,-2686,5350,-169,-231,1045,-221,-315,551
16.128999999999905,5520,-2730,5288,-94,-198,964,-227,-321,552
16.14099999999985,4912,-2982,5378,-109,-192,928,-220,-308,547
16.16300000000001,5340,-2964,5330,-66,-106,927,-213,-308,552
16.174999999999955,5188,-3164,4976,-89,-130,898,-216,-315,543
16.19699999999989,4580,-3150,5174,-121,-242,820,-203,-313,545
16.218999999999824,4600,-3192,5586,-94,-127,977,-208,-329,545
16.230999999999995,4936,-3260,5680,-8,-65,921,-215,-324,540
16.25299999999993,4420,-4242,5704,-97,-174,1096,-207,-330,536
16.264999999999873,5124,-3770,5190,-159,-50,911,-199,-332,548
16.286999999999807,4594,-3722,6760,-57,109,862,-207,-327,553
16.298999999999978,4634,-3916,5820,131,264,896,-188,-334,549
16.320999999999913,4608,-3938,5974,83,363,837,-193,-331,549
16.332999999999856,4150,-3990,6010,188,304,898,-185,-335,548
16.355000000000018,4518,-4226,5700,147,240,1049,-175,-332,543
16.376999999999953,4856,-4182,5718,136,173,926,-192,-332,553
16.388999999999896,4442,-4246,5886,149,222,893,-182,-335,553
16.41099999999983,4146,-4224,6300,198,331,858,-176,-336,549
16.423000000000002,3976,-4272,6156,357,334,929,-169,-339,549
16.444999999999936,4118,-4174,5446,277,396,978,-179,-339,549
16.45699999999988,4036,-4144,5692,279,273,942,-161,-327,553
16.478999999999814,3436,-4360,5882,227,363,939,-167,-326,559
16.500999999999976,3158,-4418,6414,227,380,927,-162,-331,561
16.51299999999992,3170,-4502,6676,273,450,1013,-156,-340,548
16.534999999999854,3314,-4384,6454,336,389,1001,-157,-349,559
16.546999999999798,3662,-4564,6626,371,354,1015,-153,-348,555
16.56899999999996,3630,-4486,6886,351,250,804,-159,-346,554
16.580999999999904,3120,-4628,7042,425,223,805,-158,-365,562
16.602999999999838,3018,-4754,6640,442,259,802,-156,-360,577
16.61500000000001,3808,-4546,7204,443,511,800,-167,-372,568
16.636999999999944,3676,-4634,7432,556,595,662,-162,-384,571
16.658999999999878,3692,-4566,7366,573,592,577,-164,-394,588
16.67099999999982,3770,-4658,7110,684,533,473,-167,-407,604
16.692999999999984,3332,-4650,6806,631,607,327,-165,-413,610
16.704999999999927,2756,-4424,7462,689,590,282,-179,-420,626
16.72699999999986,2932,-3914,7462,739,1193,277,-162,-432,650
16.748999999999796,1992,-3946,7140,819,1062,287,-159,-430,674
16.760999999999967,2802,-3842,7040,855,1042,334,-148,-441,704
16.7829999999999,2246,-3768,7062,801,824,56,-151,-449,725
16.794999999999845,916,-3676,7812,734,996,130,-121,-440,760
16.817000000000007,568,-3574,7770,803,1010,348,-116,-430,786
16.82899999999995,1190,-3510,6486,665,1067,506,-101,-425,815
16.850999999999885,3196,-2968,8196,908,1220,179,-71,-403,830
16.86299999999983,780,-3224,7226,716,1694,-215,-35,-373,871
16.88499999999999,-208,-3258,8530,711,1730,62,-3,-348,880
16.89728500000001,1496,-3284,8876,781,1546,378,16,-329,874
16.91899999999987,1496,-3168,8116,888,1167,150,47,-302,878
16.940999999999804,712,-2972,8510,681,904,49,99,-258,848
16.952999999999975,-384,-2884,9236,765,1059,-10,100,-224,828
16.97499999999991,-200,-2748,9686,719,1350,156,131,-201,823
16.986999999999853,418,-2904,9996,934,1300,-6,129,-183,794
17.009000000000015,-784,-2952,9584,964,1204,19,139,-155,754
17.03099999999995,132,-2754,9000,913,885,320,142,-151,717
17.042999999999893,1000,-2366,9308,1000,1095,-18,139,-145,687
17.064999999999827,-1002,-2512,10186,949,1142,-58,140,-134,671
17.076999999999998,-510,-2202,9706,1200,1441,-30,133,-139,635
17.098999999999933,-118,-1934,8692,1218,1399,52,136,-130,610
17.110999999999876,600,-1826,7852,1222,1269,-28,139,-130,598
17.13299999999981,664,-1356,8076,1044,1149,-416,131,-132,586
17.144999999999982,-548,-1232,8856,976,1051,-642,136,-140,562
17.166999999999916,-2978,-1292,8808,1091,798,-613,129,-140,560
17.18899999999985,-1828,-992,8640,1093,439,-158,130,-131,552
17.200999999999794,-2326,-1296,8696,1003,80,-194,124,-135,541
17.222999999999956,-2802,-1200,9380,1074,-61,-266,110,-143,531
17.2349999999999,-2368,-966,9238,1143,302,-178,116,-139,530
17.256999999999834,-3106,-1080,8178,1177,468,-147,117,-137,539
17.269000000000005,-2644,-826,8212,1006,475,25,111,-136,530
17.29099999999994,-1508,-630,8674,1034,340,12,117,-135,527
17.302999999999884,-1850,-254,8664,1108,330,-212,106,-131,511
17.324999999999818,-2302,-196,8402,1072,532,-157,112,-132,522
17.34699999999998,-2556,-274,8638,1036,482,37,121,-136,521
17.358999999999924,-1750,-116,8526,1055,521,-8,116,-129,504
17.380999999999858,-1146,70,8532,1112,503,-26,108,-124,513
17.3929999999998,-1168,220,7758,1199,624,-333,113,-113,511
17.414999999999964,-2768,192,6192,1068,875,-458,113,-113,499
17.426999999999907,-1972,626,6776,688,856,-253,123,-116,502
17.44899999999984,-604,1264,8518,682,515,-505,127,-115,498
17.471000000000004,-3192,1162,8140,1056,139,-765,119,-110,491
17.482999999999947,-4000,1082,6640,1059,169,-478,127,-115,491
17.50499999999988,-3536,1118,7078,919,373,-263,127,-102,491
17.516999999999825,-2422,1564,7124,926,388,-406,131,-115,486
17.538999999999987,-3502,1424,6550,830,285,-387,134,-110,479
17.55099999999993,-3974,1462,7346,772,292,-342,128,-116,470
17.572999999999865,-3878,1460,7794,784,449,-129,130,-108,475
17.5949999999998,-2996,1920,7572,967,429,-155,128,-96,478
17.60699999999997,-3230,1866,6952,917,395,-169,135,-108,470
17.628999999999905,-3284,1790,6300,910,248,-202,129,-99,462
17.64099999999985,-2534,2222,6608,630,400,-212,134,-97,464
17.66300000000001,-2016,2454,6924,700,63,-303,138,-93,463
17.674999999999955,-2806,2252,6402,674,-228,-422,131,-89,464
17.69699999999989,-2580,2394,7050,579,-236,-508,134,-94,464
17.708999999999833,-2754,2344,7372,666,-306,-543,130,-93,463
17.730999999999995,-2742,2422,6678,675,-170,-644,138,-83,466
17.75299999999993,-2090,2710,6514,583,-52,-762,142,-91,478
17.764999999999873,-2406,2482,7670,545,59,-846,130,-88,463
17.786999999999807,-3370,2086,6834,673,-109,-950,135,-93,468
17.798999999999978,-3652,2092,6880,613,189,-929,134,-102,457
17.8259979999998,-3638,2106,6770,600,227,-921,135,-103,463
17.837999999999965,-4352,1940,6870,704,118,-925,130,-98,459
17.84999999999991,-3708,2210,6680,759,232,-780,144,-99,462
17.871999999999844,-3818,2258,4900,777,-18,-893,140,-103,459
17.894000000000005,-4880,2236,4512,516,104,-869,129,-97,450
17.90599999999995,-3680,2552,6064,395,136,-732,151,-102,460
17.927999999999884,-3474,2620,5304,537,-173,-928,146,-105,460
17.939999999999827,-4672,2498,4756,379,-123,-952,150,-101,459
17.96199999999999,-3896,2542,4812,192,31,-894,145,-108,456
17.973999999999933,-4718,2364,5144,96,121,-960,142,-113,449
17.995999999999867,-4204,2580,5888,53,16,-885,141,-112,462
18.0179999999998,-5540,2096,5924,183,-237,-840,164,-121,461
18.029999999999973,-5336,2084,4892,195,-164,-681,140,-116,454
18.051999999999907,-4148,2242,5120,53,56,-653,157,-131,466
18.06399999999985,-4628,2204,5614,-27,150,-821,158,-127,460
18.086000000000013,-5562,2180,6492,-64,408,-735,152,-131,459
18.097999999999956,-4162,2396,6618,102,238,-590,158,-130,450
18.11999999999989,-5176,2136,5620,149,33,-719,161,-137,457
18.141999999999825,-4570,2226,5822,31,173,-594,162,-136,451
18.153999999999996,-4932,1974,5846,33,-24,-669,162,-131,463
18.17599999999993,-5300,1834,5648,-11,89,-596,163,-140,448
18.187999999999874,-4392,1934,5898,-113,271,-500,158,-143,455
18.20999999999981,-4112,1866,5876,-63,165,-646,168,-150,453
18.22199999999998,-4044,1810,5644,-83,227,-742,153,-143,457
18.243999999999915,-5216,1508,4904,-104,125,-861,168,-150,455
18.255999999999858,-5606,1314,5196,-315,249,-735,171,-146,444
18.277999999999793,-4936,1478,6262,-303,258,-713,161,-158,443
18.299999999999955,-4812,1396,6324,-202,113,-771,173,-168,453
18.311999999999898,-5802,1266,6274,-97,-37,-843,174,-167,447
18.333999999999833,-5466,1146,5692,-123,279,-774,168,-165,453
18.346000000000004,-5526,1084,6642,-209,273,-732,176,-172,449
18.367999999999938,-5752,1034,5668,35,361,-760,171,-179,449
18.37999999999988,-5604,998,5330,-114,425,-736,168,-173,448
18.401999999999816,-5734,860,5638,-115,247,-823,179,-177,435
18.423999999999978,-6466,678,5482,-169,253,-784,187,-186,433
18.435999999999922,-6114,668,5966,-250,347,-597,184,-192,451
18.457999999999856,-5052,792,6502,-150,162,-622,181,-189,437
18.4699999999998,-5594,562,5938,0,45,-755,181,-197,437
18.491999999999962,-6044,334,5512,-80,151,-744,186,-194,432
18.503999999999905,-6192,362,5058,-175,233,-688,185,-196,441
18.52599999999984,-6222,344,5740,-314,151,-632,190,-208,431
18.53828499999986,-5852,306,5888,-289,60,-570,180,-208,441
18.559999999999945,-5440,158,6292,-203,-268,-562,178,-206,443
18.58199999999988,-5876,-124,5780,-155,-420,-580,176,-215,437
18.593999999999824,-5616,-92,5816,-277,-165,-510,185,-224,431
18.615999999999985,-4974,-68,5556,-369,37,-626,185,-229,448
18.62799999999993,-5254,-238,6140,-427,20,-671,187,-231,445
18.649999999999864,-5600,-456,6204,-354,-64,-753,186,-215,437
18.661999999999807,-5938,-758,6328,-223,-56,-696,181,-230,432
18.68399999999997,-5976,-884,5606,-156,-90,-658,178,-236,436
18.705999999999904,-5590,-966,5470,-238,186,-578,184,-230,437
18.717999999999847,-4722,-618,5816,-316,221,-667,181,-243,439
18.74000000000001,-5030,-740,5714,-278,167,-798,186,-243,430
18.751999999999953,-6060,-930,5660,-330,207,-882,185,-244,436
18.773999999999887,-6220,-1046,6178,-331,240,-784,186,-250,442
18.78599999999983,-6168,-1316,5966,-260,168,-707,174,-253,430
18.807999999999993,-5834,-1444,6442,-170,118,-700,190,-264,431
18.829999999999927,-6292,-1654,5344,-137,123,-727,171,-260,425
18.84199999999987,-6050,-1646,5272,-315,325,-648,190,-251,419
18.863999999999805,-5924,-1584,5526,-366,274,-639,193,-268,418
18.875999999999976,-5356,-1590,6094,-331,159,-668,181,-270,413
18.89799999999991,-5928,-1714,5940,-196,-114,-744,191,-273,406
18.909999999999854,-6198,-2006,5590,-197,-141,-694,190,-274,417
18.932000000000016,-6240,-2198,5908,-272,54,-670,193,-275,408
18.95399999999995,-5764,-2114,6038,-261,44,-635,179,-278,404
18.965999999999894,-6002,-2222,6064,-256,26,-685,188,-273,401
18.98799999999983,-5724,-2238,6204,-188,111,-670,184,-275,394
19.0,-5756,-2230,6132,-171,-7,-738,188,-275,382
19.021999999999935,-6542,-2460,5806,-133,-108,-694,198,-280,382
19.033999999999878,-6144,-2426,5842,-160,-138,-620,201,-270,377
19.055999999999813,-5628,-2390,6336,-150,-229,-626,205,-265,372
19.067999999999984,-5960,-2574,6480,-151,-177,-686,204,-267,378
19.089999999999918,-5772,-2690,6380,-52,-134,-625,224,-264,374
19.111999999999853,-6156,-2782,6872,-55,-183,-649,213,-263,372
19.123999999999796,-5732,-2874,6300,71,-192,-618,239,-253,356
19.145999999999958,-6178,-3060,5906,51,-275,-627,242,-232,363
19.1579999999999,-6108,-3008,6364,-3,-147,-530,256,-232,365
19.179999999999836,-5432,-2954,6454,96,-126,-518,271,-210,372
19.192000000000007,-5600,-3104,6096,134,-288,-557,303,-203,381
19.213999999999942,-5922,-3110,6210,147,-335,-566,316,-170,383
19.225999999999885,-5426,-3126,6556,180,-239,-432,352,-165,400
19.24799999999982,-4884,-3124,5720,175,-270,-477,372,-151,401
19.269999999999982,-5000,-3156,6208,167,-344,-526,440,-93,430
19.281999999999925,-5240,-3262,6116,125,-268,-504,471,-72,457
19.30399999999986,-5046,-3158,6788,164,-343,-478,515,-50,487
19.315999999999804,-4744,-3182,6466,257,-352,-496,575,-26,522
19.337999999999965,-5208,-3292,6118,302,-440,-553,681,54,617
19.34999999999991,-5446,-3342,5906,170,-342,-451,747,74,694
19.371999999999844,-5128,-3424,6052,107,-323,-423,796,101,767
19.394000000000005,-4856,-3340,6856,105,-358,-390,865,120,861
19.40599999999995,-4738,-3218,6474,280,-637,-413,968,151,1078
19.427999999999884,-5006,-3316,6168,257,-702,-309,994,137,1208
19.439999999999827,-4250,-3078,6404,249,-729,-307,1001,137,1327
19.46199999999999,-4134,-3196,6538,196,-664,-295,991,117,1454
19.473999999999933,-3698,-2924,7120,141,-705,-367,926,59,1693
19.495999999999867,-3896,-3058,7544,198,-842,-357,858,21,1808
19.5179999999998,-4076,-3084,8092,279,-918,-402,759,-16,1904
19.529999999999973,-3880,-2982,7794,343,-916,-373,641,-55,1960
19.551999999999907,-3660,-2910,8256,334,-842,-363,370,-126,1943
19.56399999999985,-3002,-2722,8376,399,-919,-359,231,-165,1880
19.586000000000013,-2746,-2534,8480,479,-1205,-486,108,-187,1766
19.597999999999956,-3816,-2728,8008,532,-1399,-521,-4,-212,1642
19.61999999999989,-3818,-2598,8472,443,-1246,-337,-133,-248,1372
19.631999999999834,-2442,-2534,8426,572,-1407,-279,-174,-265,1243
19.653999999999996,-3470,-2820,8458,524,-1525,-251,-192,-272,1129
19.67599999999993,-2098,-2662,8598,564,-1576,-172,-197,-282,1031
19.687999999999874,-3068,-2866,8264,558,-1688,-213,-191,-308,882
19.70999999999981,-2850,-2892,8762,510,-1405,-149,-182,-317,811
19.72199999999998,-2294,-2650,8874,637,-1169,-114,-173,-317,773
19.743999999999915,-1458,-2264,9294,733,-1260,-125,-164,-326,736
19.755999999999858,-1840,-2204,8326,881,-1014,-289,-148,-340,696
19.777999999999793,-1364,-1704,8806,810,-1080,-129,-135,-336,671
19.799999999999955,-1568,-1640,7604,856,-1126,-85,-124,-350,665
19.811999999999898,-760,-1406,6994,598,-828,-29,-119,-350,656
19.828997999999956,-1392,-1174,7038,362,-948,-26,-118,-344,623
19.850999999999885,-1424,-1650,8266,83,-1248,391,-110,-348,620
19.86299999999983,2504,-1364,11186,319,-1467,324,-102,-348,622
19.88499999999999,630,-2060,10150,843,-1347,-477,-108,-346,619
19.896999999999935,-1834,-2230,8462,880,-1136,-490,-113,-346,619
19.91899999999987,-1544,-1994,9288,854,-798,-230,-119,-350,610
19.940999999999804,-766,-1908,8576,901,-776,-60,-112,-345,601
19.952999999999975,318,-1666,8366,976,-543,-88,-118,-341,607
19.97499999999991,-1014,-1648,7640,955,-517,-226,-112,-337,625
19.986999999999853,-1866,-1472,7312,759,-475,-7,-123,-321,621
20.009000000000015,-1314,-1226,8390,719,-866,365,-123,-326,619
20.020999999999958,-570,-940,8004,789,-1048,554,-123,-324,616
20.042999999999893,124,-924,8100,816,-1409,735,-129,-312,617
20.064999999999827,696,-514,7676,928,-1356,619,-127,-312,610
20.076999999999998,152,-544,7334,812,-1443,785,-140,-318,619
20.098999999999933,2182,-320,6926,793,-1257,824,-150,-298,623
20.110999999999876,2132,-148,6838,509,-1009,460,-151,-294,627
20.13299999999981,1122,-310,8404,452,-715,458,-163,-302,622
20.144999999999982,1704,-116,8174,528,-834,601,-162,-286,619
20.166999999999916,1800,-222,8388,660,-752,486,-157,-286,626
20.17899999999986,1238,-266,7936,765,-636,481,-174,-278,616
20.200999999999794,2166,-194,7880,782,-459,566,-157,-273,619
20.222999999999956,2820,212,7452,772,-464,303,-178,-269,617
20.2349999999999,1200,118,7240,675,-399,276,-165,-264,610
20.256999999999834,1698,252,7282,584,-548,535,-178,-249,617
20.269000000000005,2228,358,7686,533,-619,563,-175,-264,613
20.29099999999994,2468,354,7834,573,-483,510,-180,-249,608
20.302999999999884,3404,668,7580,618,-488,324,-181,-248,616
20.324999999999818,1836,440,7204,563,-680,205,-196,-240,616
20.34699999999998,1924,684,7090,496,-934,467,-185,-231,613
20.358999999999924,1842,618,7200,454,-963,611,-192,-236,613
20.380999999999858,2724,608,6670,431,-899,787,-186,-227,619
20.3929999999998,3844,842,6586,326,-963,685,-196,-237,609
20.414999999999964,2606,602,6802,291,-883,450,-192,-224,601
20.426999999999907,2724,866,5498,248,-838,718,-208,-232,600
20.44899999999984,3208,606,7234,172,-661,670,-204,-226,601
20.471000000000004,3524,658,7286,235,-438,731,-216,-234,596
20.482999999999947,4270,658,6876,289,-230,646,-214,-229,589
20.50499999999988,3698,586,6582,253,-181,606,-217,-230,595
20.516999999999825,4244,480,6660,186,-234,656,-213,-222,590
20.538999999999987,4224,464,6308,157,-263,614,-213,-225,590
20.55099999999993,4038,676,6818,67,-424,566,-215,-217,590
20.572999999999865,3894,398,7282,61,-399,638,-215,-232,588
20.5949999999998,4020,610,6532,170,-435,531,-225,-222,585
20.60699999999997,3004,436,6368,135,-414,606,-220,-235,583
20.628999999999905,3838,458,6200,132,-358,763,-222,-225,590
20.64099999999985,4162,264,6362,73,-433,712,-224,-234,582
20.66300000000001,4506,398,7128,52,-427,697,-221,-239,584
20.674999999999955,4900,304,6988,210,-363,674,-222,-240,585
20.69699999999989,4274,190,6480,214,-285,518,-221,-241,579
20.708999999999833,4082,32,6274,169,-355,704,-210,-232,580
20.730999999999995,4832,200,6362,103,-303,709,-225,-220,576
20.75299999999993,4514,100,6558,103,-351,717,-228,-236,574
20.764999999999873,4088,-146,6474,135,-259,776,-224,-229,572
20.786999999999807,5084,-256,6364,119,-22,927,-224,-236,577
20.798999999999978,5864,-130,5838,99,-433,719,-220,-245,568
20.820999999999913,4268,-354,6272,58,-358,679,-226,-244,574
20.832999999999856,4682,-428,5818,40,-125,812,-224,-236,572
20.855000000000018,4886,-458,6264,0,-117,757,-232,-240,578
20.876999999999953,4378,-538,6094,56,-99,762,-221,-234,572
20.888999999999896,4528,-626,5862,22,10,850,-215,-240,576
20.91099999999983,4812,-660,5938,1,-130,847,-220,-240,573
20.923000000000002,4298,-874,5478,-55,-132,859,-205,-250,573
20.944999999999936,5112,-792,6042,-116,-161,924,-213,-253,576
20.95699999999988,4296,-1056,5422,-175,-128,887,-216,-246,577
20.978999999999814,5124,-824,5694,-120,-196,958,-220,-250,566
20.990999999999985,4976,-980,6500,-201,6,975,-217,-245,566
21.01299999999992,4408,-1074,5918,-133,229,737,-202,-264,567
21.034999999999854,3472,-1274,5410,-231,626,813,-207,-251,560
21.046999999999798,4146,-1728,6850,-471,848,1017,-202,-254,582
21.06899999999996,4956,-1868,7432,-343,805,1120,-184,-263,573
21.080999999999904,4948,-1718,8372,-257,783,1088,-182,-259,570
21.102999999999838,4684,-2016,7696,96,460,987,-171,-265,571
21.11500000000001,4178,-2130,6688,81,520,871,-169,-275,578
21.136999999999944,4324,-2130,6748,35,647,865,-178,-272,574
21.158999999999878,3846,-2148,6670,-56,503,774,-159,-273,568
21.17099999999982,3816,-2214,7200,-37,333,940,-164,-268,583
21.192999999999984,4144,-2404,7188,-11,250,915,-155,-286,576
21.204999999999927,4568,-2340,6718,62,168,836,-162,-263,568
21.22699999999986,3648,-2540,6702,-27,98,811,-148,-267,570
21.238999999999805,4198,-2360,6954,5,262,779,-151,-267,577
21.260999999999967,3476,-2486,6738,-3,287,775,-145,-275,583
21.273284999999987,3896,-2472,6572,-17,495,785,-150,-270,559
21.294999999999845,4526,-2456,6582,-44,662,705,-135,-255,564
21.317000000000007,4108,-2494,6610,-119,397,535,-141,-269,567
21.32899999999995,3062,-2624,7502,-145,677,550,-139,-274,565
21.350999999999885,3710,-2356,7722,-74,1045,618,-140,-260,568
21.36299999999983,4214,-2458,8446,-110,954,664,-141,-272,565
21.38499999999999,4498,-2320,8330,85,1197,242,-140,-260,576
21.396999999999935,1778,-2786,7676,107,742,447,-135,-265,566
21.41899999999987,2894,-2792,8030,-22,690,621,-136,-254,572
21.440999999999804,2528,-2998,8474,37,690,489,-141,-259,570
21.452999999999975,2234,-3244,9162,48,727,523,-135,-255,566
21.47499999999991,3334,-2808,10462,214,1028,585,-139,-254,584
21.486999999999853,1818,-2996,7716,431,1037,377,-146,-256,584
21.509000000000015,2530,-2840,8746,272,839,532,-146,-234,586
21.520999999999958,1762,-2862,7360,318,796,372,-147,-245,600
21.542999999999893,1364,-2676,7706,259,880,468,-155,-230,614
21.564999999999827,1518,-2648,8260,195,872,632,-152,-220,619
21.576999999999998,1796,-2654,7818,174,602,619,-156,-224,620
21.598999999999933,1268,-2682,8020,159,528,625,-153,-206,653
21.610999999999876,1096,-2824,7466,149,454,624,-146,-203,656
21.63299999999981,760,-2864,8032,58,607,640,-139,-193,665
21.644999999999982,1058,-2866,7852,52,654,710,-150,-192,674
21.666999999999916,1466,-2708,8482,46,617,597,-128,-172,702
21.67899999999986,748,-2776,7904,154,586,514,-123,-159,707
21.700999999999794,478,-2854,8408,63,778,602,-111,-154,733
21.722999999999956,538,-2732,8070,170,663,616,-105,-150,739
21.7349999999999,768,-2684,7754,82,459,649,-75,-129,738
21.756999999999834,134,-2746,8060,15,366,614,-65,-118,745
21.769000000000005,-206,-2746,8562,-43,706,600,-48,-106,750
21.79099999999994,-112,-2900,8706,50,703,690,-19,-103,743
21.812999999999874,898,-2652,8652,116,772,607,21,-106,729
21.829997999999932,598,-2720,8942,124,961,513,32,-87,715
21.84199999999987,494,-2352,8822,245,1033,317,49,-107,711
21.863999999999805,-556,-2590,8220,212,817,365,58,-98,698
21.875999999999976,-398,-2684,8330,138,552,544,88,-112,661
21.89799999999991,412,-2556,9030,95,486,485,81,-115,646
21.909999999999854,-470,-2638,9240,147,571,391,87,-116,626
21.932000000000016,-84,-2590,9284,269,485,376,88,-110,629
21.94399999999996,-612,-2590,8896,307,406,369,88,-132,601
21.965999999999894,-638,-2602,8900,283,302,418,98,-125,584
21.98799999999983,-796,-2452,9068,323,278,378,82,-139,578
22.0,-640,-2342,9172,359,343,383,90,-145,572
22.021999999999935,-984,-2420,9308,429,324,306,92,-156,557
22.033999999999878,-1384,-2374,9182,480,479,319,96,-159,554
22.055999999999813,-464,-2266,9340,517,505,375,81,-175,553
22.067999999999984,-1144,-2282,9220,547,441,267,93,-168,541
22.089999999999918,-552,-2144,9524,661,501,222,96,-172,542
22.111999999999853,-1646,-2220,9148,762,588,33,96,-174,540
22.123999999999796,-1914,-1978,8568,831,968,109,88,-180,529
22.145999999999958,-1596,-1752,8412,811,1205,159,98,-170,534
22.1579999999999,-1520,-1622,8158,770,983,218,104,-174,530
22.179999999999836,-1540,-1516,8190,733,735,144,93,-165,522
22.192000000000007,-2300,-1498,8314,793,747,123,108,-164,523
22.213999999999942,-2564,-1362,8250,800,805,195,93,-168,515
22.225999999999885,-2416,-952,7540,758,1260,192,113,-167,513
22.24799999999982,-1566,-808,7868,673,1006,309,113,-164,504
22.269999999999982,-1518,-686,7806,711,610,92,117,-165,498
22.281999999999925,-2756,-778,7528,718,742,-27,111,-164,492
22.30399999999986,-2518,-630,7872,720,865,-1,129,-150,488
22.315999999999804,-2146,-338,7866,817,1188,-322,128,-164,490
22.337999999999965,-3090,-450,7806,861,1201,-446,129,-150,496
22.34999999999991,-2910,-10,8560,878,1315,-421,129,-163,481
22.371999999999844,-3636,-122,7226,963,534,-227,139,-150,479
22.394000000000005,-3770,-156,7492,775,342,-71,131,-158,481
22.40599999999995,-4108,-342,7624,808,528,10,140,-162,475
22.427999999999884,-3348,122,7498,781,670,17,135,-149,475
22.439999999999827,-3632,326,7414,777,657,33,144,-158,469
22.46199999999999,-3188,626,7222,823,461,72,144,-158,464
22.473999999999933,-3758,454,7196,779,330,55,138,-141,463
22.495999999999867,-3588,536,7222,756,493,37,145,-146,466
22.5179999999998,-3378,766,6844,750,610,-27,147,-154,461
22.529999999999973,-3910,810,6920,727,637,-90,156,-132,457
22.551999999999907,-4010,1032,6958,730,639,-70,150,-136,449
22.56399999999985,-4212,1056,6546,711,614,-23,147,-141,451
22.586000000000013,-3710,1250,6466,642,436,3,157,-139,437
22.597999999999956,-3726,1526,6750,642,566,-75,158,-125,448
22.61999999999989,-4156,1388,5752,642,537,-143,157,-129,439
22.631999999999834,-3910,1430,5952,527,378,-161,164,-129,437
22.653999999999996,-4968,1262,5724,488,239,-261,168,-132,448
22.67599999999993,-4804,1296,6360,392,306,-120,156,-132,438
22.687999999999874,-4194,1464,6498,446,285,-169,163,-127,431
22.70999999999981,-4872,1510,6558,430,227,-231,167,-134,437
22.72199999999998,-5046,1492,6552,515,164,-149,174,-126,430
22.743999999999915,-4360,1548,6462,550,226,-79,157,-131,432
22.755999999999858,-4542,1736,6012,474,237,-178,168,-125,431
22.777999999999793,-4632,1814,6504,463,258,-186,164,-131,430
22.799999999999955,-4570,1652,6856,462,241,-158,167,-126,430
22.811999999999898,-4620,1658,6704,545,165,-179,164,-129,425
22.833999999999833,-4308,1762,6538,550,246,-202,167,-124,430
22.846000000000004,-4568,1720,6536,532,251,-196,176,-121,423
22.867999999999938,-4162,1838,6326,559,193,-230,184,-116,432
22.87999999999988,-3792,1962,6452,559,129,-329,173,-112,431
22.901999999999816,-4022,2006,6824,628,183,-460,175,-122,409
22.914284999999836,-4702,1904,6000,676,193,-559,174,-118,415
22.935999999999922,-5068,1904,5500,664,198,-583,182,-115,419
22.957999999999856,-5356,1850,5332,609,119,-512,179,-121,413
22.9699999999998,-5354,1888,5492,530,114,-459,185,-125,412
22.991999999999962,-5358,1926,5476,594,-51,-458,179,-124,418
23.003999999999905,-5242,1942,5110,555,-32,-441,170,-117,412
23.02599999999984,-5224,2078,5102,499,-34,-453,173,-120,419
23.03800000000001,-4632,2218,5196,501,3,-521,180,-127,417
23.059999999999945,-4958,2084,4904,392,61,-533,169,-126,418
23.08199999999988,-4590,2030,5156,356,144,-631,170,-120,417
23.093999999999824,-4636,1908,5284,380,144,-666,175,-127,417
23.115999999999985,-5020,1720,5270,425,-70,-755,185,-127,409
23.12799999999993,-5060,1674,4874,444,72,-782,181,-124,413
23.149999999999864,-4808,1842,5164,355,346,-891,184,-136,420
23.161999999999807,-5904,1606,4270,407,193,-923,179,-146,420
23.18399999999997,-6418,1708,4478,300,66,-888,180,-135,426
23.205999999999904,-5782,1892,5024,207,64,-718,186,-144,423
23.217999999999847,-5384,1910,5156,183,-69,-760,188,-141,408
23.24000000000001,-5448,1880,5498,220,-69,-832,199,-145,412
23.251999999999953,-6170,1788,5118,162,-133,-820,188,-144,415
23.273999999999887,-5566,1708,5908,188,43,-787,186,-149,411
23.28599999999983,-5866,1696,5674,205,33,-817,199,-150,412
23.307999999999993,-5868,1548,5284,262,-77,-847,192,-158,412
23.319999999999936,-6424,1310,4904,223,-62,-863,191,-162,408
23.34199999999987,-5896,1458,5676,113,17,-791,184,-159,411
23.363999999999805,-6362,944,5330,132,136,-895,192,-163,414
23.375999999999976,-6336,1046,5346,267,127,-743,186,-162,411
23.39799999999991,-6032,1022,5156,211,42,-780,191,-172,408
23.409999999999854,-6314,960,4746,168,10,-834,196,-172,408
23.432000000000016,-6692,674,4876,85,80,-794,192,-180,409
23.44399999999996,-6334,768,5070,30,220,-738,187,-178,414
23.465999999999894,-6182,632,5050,130,85,-765,202,-188,412
23.48799999999983,-6398,482,4880,88,153,-769,196,-189,413
23.5,-5860,558,5158,116,107,-801,193,-182,411
23.521999999999935,-6474,414,4340,87,33,-820,199,-191,409
23.533999999999878,-6614,412,4230,-53,126,-749,193,-199,406
23.555999999999813,-6360,270,5138,-163,148,-719,208,-199,408
23.567999999999984,-6174,172,5738,-53,99,-723,199,-208,407
23.589999999999918,-6430,100,5982,118,-215,-741,197,-201,407
23.602284999999938,-6530,-46,4464,171,-130,-668,205,-199,404
23.623999999999796,-6262,-56,4098,-9,65,-661,185,-208,405
23.645999999999958,-6180,-152,4000,-195,133,-710,203,-220,399
23.6579999999999,-5820,-98,5358,-285,136,-723,201,-215,401
23.679999999999836,-6442,-320,5026,-97,-223,-805,193,-222,408
23.692000000000007,-6848,-648,4846,-165,-142,-723,194,-226,400
23.713999999999942,-6434,-780,5072,-217,-22,-664,192,-226,409
23.725999999999885,-6118,-720,5672,-203,-44,-722,208,-237,404
23.74799999999982,-6318,-908,5648,-151,6,-685,203,-232,399
23.769999999999982,-6400,-984,5292,-115,-80,-696,198,-243,401
23.781999999999925,-5962,-1032,5162,-172,10,-699,203,-255,399
23.80399999999986,-6168,-1252,5160,-183,72,-752,205,-250,396
23.815999999999804,-6108,-1236,5882,-258,265,-753,210,-240,389
23.83299799999986,-6168,-1274,5856,-222,230,-771,197,-259,395
23.855000000000018,-6186,-1280,6174,-93,139,-809,196,-263,387
23.866999999999962,-6788,-1502,5126,-19,118,-806,202,-264,393
23.888999999999896,-6566,-1658,4938,-7,114,-805,196,-278,392
23.91099999999983,-7008,-1826,4836,-28,96,-760,201,-270,389
23.923000000000002,-7030,-1910,4662,-133,204,-708,191,-283,375
23.944999999999936,-6746,-1758,5656,-75,164,-701,196,-280,392
23.95699999999988,-6810,-1870,5270,-31,86,-645,187,-274,366
23.978999999999814,-6738,-1990,5152,-36,145,-597,187,-287,378
23.990999999999985,-6516,-1952,5008,6,19,-612,190,-279,371
24.01299999999992,-7002,-2084,4906,-54,34,-598,184,-288,372
24.034999999999854,-6602,-2138,5222,-116,79,-533,180,-284,359
24.046999999999798,-6360,-2156,5330,-91,-1,-532,184,-286,365
24.06899999999996,-6504,-2180,5444,-45,-92,-558,186,-298,368
24.080999999999904,-6376,-2216,5082,40,-113,-525,193,-296,360
24.102999999999838,-6328,-2280,4670,-41,-108,-528,190,-292,352
24.11500000000001,-6284,-2376,5258,-116,-85,-535,192,-294,352
24.136999999999944,-5874,-2378,5990,-89,-122,-555,199,-289,345
24.149284999999963,-6116,-2500,5706,51,-271,-568,187,-297,340
24.17099999999982,-6020,-2672,5234,9,-202,-530,196,-298,353
24.192999999999984,-5918,-2802,5024,-24,-203,-578,199,-292,343
24.204999999999927,-5616,-2734,5926,-67,-250,-586,198,-291,344
24.22699999999986,-6014,-2908,5812,13,-198,-627,194,-289,335
24.238999999999805,-5838,-2918,6062,8,-71,-606,201,-278,337
24.260999999999967,-5778,-3092,5878,136,-226,-609,191,-275,346
24.27299999999991,-5966,-3156,5414,105,-182,-635,203,-255,344
24.294999999999845,-5636,-3126,5786,46,-95,-584,207,-249,338
24.317000000000007,-5282,-3056,6176,113,-268,-643,224,-241,340
24.32899999999995,-6202,-3240,5872,201,-393,-684,228,-229,328
24.350999999999885,-5702,-3180,6230,184,-411,-594,232,-192,344
24.36299999999983,-5522,-3192,5694,249,-556,-620,239,-177,363
24.38499999999999,-5424,-3288,6244,163,-523,-677,243,-140,366
24.396999999999935,-5636,-3458,6338,224,-335,-616,245,-102,378
24.41899999999987,-5028,-3334,6530,247,-316,-562,266,-12,411
24.440999999999804,-4796,-3486,6178,376,-496,-630,274,46,421
24.452999999999975,-5298,-3496,5794,285,-523,-610,289,105,438
24.47499999999991,-5260,-3510,6220,254,-598,-578,299,198,474
24.486999999999853,-4998,-3350,6654,194,-505,-513,360,374,525
24.509000000000015,-4610,-3258,6824,273,-628,-493,368,458,600
24.520999999999958,-4726,-3398,6814,288,-573,-570,418,536,647
24.542999999999893,-5354,-3616,6638,193,-384,-438,428,589,724
24.554999999999836,-5294,-3612,6748,180,-452,-424,431,589,877
24.576999999999998,-4658,-3490,7644,183,-569,-341,380,554,946
24.598999999999933,-4388,-3430,7758,429,-863,-455,330,489,1000
24.610999999999876,-4906,-3664,7530,633,-1007,-588,259,392,1025
24.63299999999981,-5228,-3710,7124,654,-732,-538,90,193,990
24.644999999999982,-4734,-3482,7088,571,-593,-513,46,93,951
24.666999999999916,-4704,-3376,7736,627,-670,-471,3,6,897
24.68899999999985,-4734,-3456,7666,747,-806,-412,-35,-62,857
24.700999999999794,-4816,-3418,7324,790,-819,-358,-55,-164,757
24.722999999999956,-4364,-3288,7124,783,-941,-313,-49,-213,735
24.7349999999999,-4290,-3154,7568,798,-1025,-296,-70,-248,698
24.756999999999834,-4386,-3104,7430,772,-908,-218,-62,-270,678
24.769000000000005,-4456,-2898,7780,766,-887,-134,-56,-312,646
24.79099999999994,-3588,-2632,7984,796,-934,-69,-54,-325,627
24.802999999999884,-3536,-2664,8380,807,-920,-39,-43,-331,621
24.824999999999818,-3146,-2208,8072,945,-1290,6,-46,-336,612
24.84699999999998,-3782,-2478,7386,872,-1110,-105,-43,-341,609
24.858999999999924,-3700,-2120,7240,792,-848,12,-50,-344,614
24.880999999999858,-3558,-1938,7178,663,-1012,202,-41,-356,602
24.8929999999998,-3224,-1824,7354,629,-1186,324,-44,-345,601
24.914999999999964,-3046,-1678,7566,548,-1421,446,-55,-359,602
24.926999999999907,-2488,-1788,7610,527,-1630,529,-49,-350,594
24.94899999999984,-1424,-1728,9174,474,-1440,532,-55,-349,609
24.961000000000013,-488,-1364,8922,746,-1179,153,-55,-354,604
24.982999999999947,-2070,-1576,7646,739,-1105,-59,-72,-351,604
25.00499999999988,-2142,-1290,8142,685,-1176,162,-82,-336,612
25.016999999999825,-1404,-1174,8358,690,-961,268,-77,-339,614
25.038999999999987,-748,-988,8954,686,-587,157,-81,-325,613
25.05099999999993,74,-690,9140,833,-847,122,-89,-339,616
25.072999999999865,-1302,-816,8246,993,-1178,-107,-82,-326,621
25.08499999999981,-2218,-916,7934,866,-790,145,-90,-327,608
25.10699999999997,-964,-696,7900,732,-295,250,-96,-326,609
25.128999999999905,-154,-520,7942,749,-541,319,-89,-306,619
25.14099999999985,298,-240,8246,811,-778,114,-84,-298,623
25.16300000000001,-1216,-590,7532,750,-747,68,-93,-289,634
25.174999999999955,-1454,-244,7132,595,-757,265,-110,-292,627
25.19699999999989,-410,-356,7338,532,-917,533,-110,-279,627
25.208999999999833,684,86,7254,462,-1116,467,-108,-283,626
25.230999999999995,-88,-228,8432,480,-1119,320,-117,-282,629
25.242999999999938,-328,-44,8266,508,-547,240,-122,-279,627
25.264999999999873,132,44,7876,571,-573,475,-131,-274,627
25.286999999999807,604,102,7920,562,-697,393,-121,-270,623
25.298999999999978,530,328,7534,551,-507,379,-135,-263,633
25.320999999999913,342,310,7252,488,-475,388,-131,-267,629
25.332999999999856,868,512,7280,398,-590,441,-131,-256,622
25.355000000000018,878,518,7722,307,-566,497,-135,-260,626
25.366999999999962,1222,426,8196,392,-580,434,-136,-256,622
25.388999999999896,720,414,7908,401,-475,370,-135,-237,619
25.41099999999983,1024,562,7624,469,-441,498,-155,-248,623
25.423000000000002,1154,556,7126,376,-676,483,-147,-237,621
25.444999999999936,1172,746,7444,331,-525,528,-152,-237,623
25.45699999999988,1114,770,7664,313,-443,582,-152,-243,623
25.478999999999814,1718,894,7528,287,-322,647,-157,-232,626
25.490999999999985,2120,972,7374,306,-637,539,-159,-232,628
25.51299999999992,1174,852,7576,233,-531,536,-163,-231,625
25.534999999999854,1494,944,7634,214,-345,636,-165,-234,617
25.546999999999798,1858,870,7592,175,-77,675,-158,-218,617
25.56899999999996,2462,900,7488,177,-239,673,-157,-220,619
25.580999999999904,2244,798,7632,143,-553,544,-164,-230,612
25.602999999999838,1886,758,7922,177,-678,663,-146,-216,617
25.61500000000001,2274,788,7226,179,-674,697,-167,-227,619
25.636999999999944,2508,750,7998,87,-632,706,-162,-220,616
25.648999999999887,2468,746,7368,142,-554,694,-175,-224,608
25.67099999999982,2842,746,7284,141,-733,723,-162,-222,612
25.692999999999984,2364,668,7220,90,-720,656,-179,-225,604
25.704999999999927,1918,494,7000,61,-669,828,-171,-222,602
25.72699999999986,2512,530,6994,-9,-541,924,-176,-225,602
25.738999999999805,3602,598,6952,5,-726,960,-182,-226,598
25.760999999999967,3174,324,6884,-14,-981,834,-179,-220,604
25.77299999999991,2758,264,6820,-52,-835,891,-202,-229,603
25.794999999999845,3232,336,6796,-93,-605,976,-178,-234,606
25.817000000000007,3036,198,6236,-134,-497,982,-201,-235,592
25.833997999999838,2528,-86,5500,-155,-648,1067,-199,-241,594
25.846000000000004,3004,-204,5826,-313,-697,1167,-198,-240,597
25.867999999999938,2874,-506,6216,-337,-745,1170,-197,-234,598
25.87999999999988,3782,-678,6450,-375,-696,1314,-197,-241,577
25.901999999999816,4904,-772,6632,-350,-852,1268,-201,-245,590
25.923999999999978,4628,-860,6662,-295,-1091,1123,-194,-256,577
25.935999999999922,3778,-1246,6896,-287,-854,1164,-194,-244,589
25.957999999999856,4954,-1402,6758,-298,-568,1465,-202,-259,584
25.9699999999998,6440,-1470,5940,-415,-963,1448,-208,-265,580
25.991999999999962,4462,-2006,6982,-405,-778,1117,-199,-269,562
26.003999999999905,4668,-1630,6752,-79,-571,1126,-202,-264,570
26.02599999999984,6100,-1582,6402,-257,-73,935,-204,-277,567
26.03800000000001,5172,-1834,6716,-206,92,814,-203,-280,564
26.059999999999945,5272,-1814,6944,-168,23,829,-197,-277,567
26.08199999999988,5024,-1914,7152,-40,92,708,-192,-279,565
26.093999999999824,4116,-1980,7180,48,161,689,-188,-275,573
26.115999999999985,4628,-1924,5988,69,202,883,-193,-278,554
26.12799999999993,4462,-1938,6142,5,145,821,-180,-289,562
26.149999999999864,4100,-2050,6898,-28,97,855,-188,-280,578
26.161999999999807,4288,-2162,6554,47,255,908,-176,-286,568
26.18399999999997,4048,-2372,6616,-57,391,961,-174,-278,573
26.19628499999999,5300,-2148,6782,-15,236,954,-168,-287,565
26.217999999999847,4414,-2362,7172,-37,36,811,-165,-289,567
26.24000000000001,3678,-2464,6862,-39,172,870,-167,-288,559
26.251999999999953,4640,-2452,6692,-24,110,948,-159,-291,566
26.273999999999887,3838,-2580,6754,-78,142,752,-155,-293,557
26.28599999999983,3758,-2636,6742,-81,154,902,-157,-280,559
26.307999999999993,4062,-2672,6728,-86,235,826,-150,-278,566
26.319999999999936,3872,-2866,6920,-141,151,812,-140,-296,559
26.34199999999987,5094,-2840,7410,-152,490,736,-148,-282,553
26.363999999999805,3460,-3226,6792,28,343,704,-144,-289,551
26.375999999999976,4486,-2960,7394,-147,627,613,-151,-274,548
26.39799999999991,2374,-3402,6888,112,312,847,-136,-267,548
26.409999999999854,4550,-2966,6958,4,76,886,-155,-280,549
26.432000000000016,3618,-3214,6990,56,84,767,-148,-277,543
26.44399999999996,3464,-3222,6564,-6,109,874,-153,-279,551
26.465999999999894,3576,-3280,7060,-61,172,898,-147,-265,537
26.48799999999983,4504,-3304,8194,33,432,814,-158,-274,536
26.5,3496,-3442,6362,-97,414,785,-165,-267,546
26.521999999999935,4250,-3474,7716,-79,229,727,-170,-261,529
26.533999999999878,3122,-3632,7004,-9,106,629,-162,-250,540
26.555999999999813,3588,-3500,7512,42,263,720,-184,-250,547
26.567999999999984,3252,-3548,7052,13,391,713,-196,-237,549
26.589999999999918,3386,-3604,7570,-16,537,703,-201,-232,547
26.611999999999853,3198,-3636,7680,25,501,631,-211,-221,562
26.623999999999796,2732,-3640,7682,100,430,552,-225,-212,554
26.645999999999958,1900,-3736,7476,117,384,625,-243,-201,572
26.6579999999999,2654,-3728,7434,74,383,685,-245,-201,579
26.679999999999836,2760,-3744,7852,94,337,616,-280,-177,595
26.692000000000007,2216,-3832,7580,119,443,573,-282,-168,606
26.713999999999942,2598,-3590,7798,142,473,576,-301,-160,629
26.725999999999885,2346,-3470,7538,160,224,512,-302,-151,640
26.74799999999982,2286,-3512,7720,209,116,534,-301,-127,684
26.769999999999982,2342,-3376,7554,208,27,457,-313,-110,696
26.781999999999925,1968,-3462,7420,282,11,394,-308,-107,706
26.80399999999986,1156,-3498,6792,263,-12,367,-301,-84,727
26.815999999999804,1250,-3614,7070,194,138,520,-293,-81,765
26.837999999999965,1728,-3616,7440,170,98,617,-285,-60,781
26.84999999999991,2402,-3384,7810,200,185,513,-266,-58,798
26.871999999999844,2404,-3566,7946,235,289,520,-242,-40,803
26.894000000000005,2210,-3586,8602,298,309,381,-203,-25,836
26.90599999999995,1544,-3684,8258,471,465,491,-181,-12,819
26.927999999999884,2612,-3550,8188,379,925,459,-151,-21,814
26.939999999999827,3048,-3336,9420,486,1135,261,-122,-24,804
26.96199999999999,994,-3906,8816,292,1479,-33,-66,-34,775
26.973999999999933,1066,-3704,8688,601,1398,211,-43,-43,753
26.995999999999867,1786,-3404,9234,676,1300,233,-15,-49,725
27.00799999999981,1654,-3138,8774,755,1368,72,-10,-67,704
27.029999999999973,898,-3046,8146,764,1198,72,18,-97,668
27.051999999999907,28,-2972,8036,696,945,159,29,-118,655
27.06399999999985,814,-2842,8412,627,1059,265,36,-116,633
27.086000000000013,452,-2802,8676,655,824,124,44,-120,632
27.097999999999956,228,-2580,8960,708,659,119,44,-145,596
27.11999999999989,-406,-2834,8410,785,286,179,43,-146,600
27.131999999999834,-714,-2786,8464,761,449,151,53,-162,585
27.153999999999996,-1216,-2680,8262,705,634,251,39,-158,589
27.17599999999993,-208,-2488,8822,699,623,356,46,-167,578
27.187999999999874,-418,-2310,8886,796,464,178,60,-164,566
27.20999999999981,-610,-2214,8572,881,525,256,60,-184,561
27.22199999999998,-822,-2140,8426,778,836,218,50,-174,554
27.243999999999915,-534,-1978,8442,871,724,261,61,-168,553
27.255999999999858,-818,-1856,8620,803,980,237,59,-173,546
27.277999999999793,-532,-1442,8980,855,940,266,62,-179,542
27.299999999999955,-230,-1340,8262,905,843,206,62,-177,535
27.311999999999898,-636,-1342,12576,1108,5546,41,69,-173,536
27.333999999999833,-1568,-1162,8188,1149,1538,260,85,-178,529
27.346000000000004,-1414,-1032,8136,1143,2348,94,101,-174,518
27.367999999999938,-3046,-990,7154,1041,1879,201,106,-159,511
27.37999999999988,-2054,-568,7286,801,1035,365,116,-169,499
27.401999999999816,-2206,-304,8306,724,976,182,123,-169,511
27.413999999999987,-3044,-434,8112,851,731,205,119,-155,493
27.435999999999922,-2820,-152,7788,873,711,172,130,-172,490
27.457999999999856,-3006,-48,7444,899,1022,169,125,-156,487
27.4699999999998,-3084,44,7262,832,629,142,134,-163,484
27.491999999999962,-3202,114,7250,743,698,137,124,-150,488
27.503999999999905,-2942,382,7704,788,635,52,131,-155,474
27.52599999999984,-3652,256,6892,789,487,45,144,-145,472
27.53800000000001,-3410,424,7072,725,404,104,141,-143,479
27.559999999999945,-3282,600,7180,669,597,85,142,-149,478
27.58199999999988,-3086,734,7486,715,585,26,133,-149,463
27.593999999999824,-3252,888,7112,747,469,-37,131,-137,464
27.615999999999985,-3598,766,6534,743,281,-41,146,-132,462
27.62799999999993,-3294,1000,7174,669,165,-33,138,-131,461
27.649999999999864,-3200,1092,6982,729,262,-129,157,-131,468
27.661999999999807,-3716,1096,6842,676,459,-203,147,-131,456
27.68399999999997,-3838,1208,6928,640,459,-151,147,-124,459
27.695999999999913,-3686,1364,7036,649,677,-171,153,-127,450
27.717999999999847,-4124,1382,6450,718,593,-189,150,-124,442
27.74000000000001,-3780,1468,6388,637,446,-136,150,-126,449
27.751999999999953,-4556,1332,4754,786,392,-239,146,-112,450
27.773999999999887,-4222,1544,6104,510,143,-212,155,-116,439
27.78599999999983,-4308,1714,6570,566,115,-297,165,-120,443
27.807999999999993,-5056,1610,6818,564,177,-325,156,-115,448
27.819999999999936,-5090,1556,5962,592,330,-218,161,-120,441
27.836997999999994,-4644,1724,6194,518,263,-183,150,-118,442
27.858999999999924,-4454,1848,6416,628,235,-273,163,-122,438
27.880999999999858,-4644,1870,5986,591,168,-296,163,-122,436
27.8929999999998,-4652,1870,6074,600,90,-324,162,-126,435
27.914999999999964,-4782,1984,5866,554,125,-341,167,-118,439
27.926999999999907,-4468,2118,6326,552,135,-334,161,-117,433
27.94899999999984,-4762,2000,5782,592,-80,-373,170,-117,436
27.961000000000013,-4734,1964,5636,580,-32,-390,170,-120,436
27.982999999999947,-4900,2048,5426,505,68,-372,159,-124,427
28.00499999999988,-4524,2020,5738,500,170,-401,164,-116,437
28.016999999999825,-4608,2122,5152,468,174,-435,165,-122,438
28.038999999999987,-4658,2108,5530,405,138,-467,164,-121,435
28.05099999999993,-4632,2138,5436,390,-19,-521,162,-121,435
28.072999999999865,-4738,2190,5548,432,-37,-580,175,-115,433
28.08499999999981,-5180,2050,5360,418,-114,-589,178,-122,429
28.10699999999997,-5070,2036,4732,379,-276,-541,161,-115,441
28.128999999999905,-5054,1964,4972,267,-43,-554,174,-118,430
28.14099999999985,-5188,2022,5224,204,104,-573,164,-124,425
28.16300000000001,-5102,2080,5732,225,61,-575,169,-126,432
28.174999999999955,-5336,2098,5162,298,-93,-619,173,-125,433
28.19699999999989,-5498,2024,4744,239,-167,-568,169,-126,427
28.208999999999833,-5228,2002,4952,141,-170,-585,173,-132,433
28.230999999999995,-5064,1990,5694,65,-213,-585,173,-140,424
28.242999999999938,-5256,1912,5824,128,-290,-669,165,-130,431
28.264999999999873,-5812,1816,5444,138,-232,-646,174,-141,442
28.286999999999807,-5508,1872,5490,38,-88,-591,180,-140,433
28.298999999999978,-5640,1848,6158,0,-40,-589,178,-145,431
28.320999999999913,-5032,1920,6626,170,-3,-585,180,-143,436
28.332999999999856,-5442,1782,5854,151,87,-644,174,-136,435
28.355000000000018,-5104,1786,6276,126,146,-673,174,-141,432
28.366999999999962,-5510,1730,6466,200,84,-692,176,-154,435
28.388999999999896,-5810,1404,5340,337,-40,-677,185,-148,436
28.41099999999983,-5878,1278,4918,151,206,-595,174,-144,437
28.423000000000002,-5396,1278,6232,33,337,-599,182,-143,443
28.444999999999936,-5466,1216,5876,55,445,-694,192,-155,436
28.45699999999988,-5540,1312,5110,284,214,-578,187,-160,441
28.478999999999814,-5690,1278,4848,140,226,-624,184,-154,430
28.490999999999985,-5386,1338,4842,86,271,-607,182,-160,421
28.51299999999992,-5412,1478,4888,19,296,-677,194,-165,424
28.524999999999864,-5642,1460,4840,-13,158,-659,185,-165,431
28.546999999999798,-5630,1360,4910,-16,54,-673,190,-173,433
28.56899999999996,-5680,1188,4792,-149,184,-678,184,-174,423
28.580999999999904,-5736,1220,5318,-185,181,-741,199,-175,431
28.602999999999838,-5944,1006,6344,-188,249,-705,199,-188,426
28.61500000000001,-5816,920,5590,-45,103,-753,194,-175,429
28.636999999999944,-6054,750,5522,-47,135,-744,199,-178,433
28.648999999999887,-6070,520,5386,-82,99,-710,202,-198,419
28.67099999999982,-5788,466,5422,-47,80,-759,204,-193,426
28.692999999999984,-6110,252,5070,-82,130,-781,196,-199,413
28.704999999999927,-6466,112,4912,-123,113,-811,201,-199,423
28.72699999999986,-6506,26,5430,-221,202,-794,196,-210,418
28.738999999999805,-6804,-134,6276,-223,234,-752,198,-212,420
28.760999999999967,-6360,-126,6574,4,130,-722,201,-217,413
28.77299999999991,-6604,-384,5236,71,129,-737,201,-215,404
28.794999999999845,-6576,-414,4840,23,184,-701,214,-221,409
28.817000000000007,-6300,-408,4866,-52,176,-704,207,-221,424
28.82899999999995,-6336,-468,4308,-84,196,-700,209,-229,407
28.850999999999885,-6152,-450,5030,-177,238,-717,213,-227,413
28.86299999999983,-6212,-448,5108,-73,200,-756,198,-232,406
28.88499999999999,-6406,-646,3972,-62,219,-731,216,-234,395
28.896999999999935,-5964,-666,4120,-205,261,-752,208,-243,392
28.91899999999987,-6824,-820,4584,-301,69,-797,210,-245,396
28.93128499999989,-6904,-1000,4992,-308,143,-721,215,-260,392
28.952999999999975,-6656,-1022,5186,-330,166,-740,211,-249,388
28.97499999999991,-6918,-1044,5634,-308,173,-753,205,-248,380
28.986999999999853,-6700,-1160,5704,-241,105,-670,209,-256,374
29.009000000000015,-6950,-1466,5124,-216,-2,-714,209,-256,371
29.020999999999958,-7094,-1692,5358,-279,130,-684,207,-264,376
29.042999999999893,-7030,-1624,6202,-276,280,-674,207,-279,364
29.054999999999836,-7072,-1838,6268,-37,149,-609,201,-260,368
29.076999999999998,-6846,-1882,4886,34,6,-583,203,-270,360
29.098999999999933,-6806,-1946,4552,-87,59,-567,205,-263,363
29.110999999999876,-6370,-2012,5052,-163,53,-572,202,-272,359
29.13299999999981,-6668,-2086,5426,-106,-10,-598,205,-273,351
29.144999999999982,-6654,-2214,5590,-77,-37,-506,198,-280,353
29.166999999999916,-5998,-2150,5348,25,-178,-526,201,-286,346
29.17899999999986,-6386,-2262,4948,-19,-102,-556,198,-263,346
29.200999999999794,-5732,-2280,5140,-21,-206,-552,203,-270,356
29.222999999999956,-6146,-2498,5424,-89,-50,-647,197,-269,347
29.2349999999999,-5906,-2424,5880,-67,-4,-637,196,-270,337
29.256999999999834,-6390,-2526,5848,52,-143,-670,197,-261,343
29.269000000000005,-6214,-2476,5484,62,-252,-602,197,-261,333
29.29099999999994,-6384,-2638,5366,63,-394,-631,203,-255,344
29.302999999999884,-6354,-2658,5972,0,-340,-612,197,-241,335
29.324999999999818,-6014,-2778,6630,17,-310,-585,184,-232,337
29.33699999999999,-6076,-2812,6470,136,-537,-663,196,-227,334
29.358999999999924,-6094,-2972,6558,213,-472,-613,191,-207,351
29.380999999999858,-6414,-3130,6152,206,-505,-608,182,-188,355
29.3929999999998,-5914,-3012,6532,304,-463,-527,190,-178,357
29.414999999999964,-6172,-3232,6142,331,-735,-494,174,-164,372
29.426999999999907,-5404,-3064,6272,319,-577,-487,152,-106,387
29.44899999999984,-5586,-3312,5918,332,-675,-534,135,-73,396
29.471000000000004,-5574,-3090,6020,293,-477,-584,117,-34,402
29.482999999999947,-5782,-3196,6298,320,-393,-504,115,-8,402
29.50499999999988,-5168,-3212,6300,393,-370,-457,79,108,406
29.516999999999825,-4928,-3142,6510,427,-430,-535,71,148,402
29.538999999999987,-4614,-3112,6306,537,-783,-554,81,201,402
29.55099999999993,-4456,-3020,6210,521,-787,-679,94,240,406
29.572999999999865,-5266,-3190,6210,542,-738,-764,148,284,464
29.58499999999981,-5316,-3120,7156,472,-797,-633,170,289,498
29.60699999999997,-5448,-3110,7022,500,-577,-538,190,282,541
29.618999999999915,-4562,-2960,7606,529,-831,-409,182,254,594
29.64099999999985,-4972,-2956,6962,674,-942,-496,161,163,687
29.66300000000001,-4710,-2888,6626,541,-1099,-347,131,122,718
29.674999999999955,-4272,-2608,6788,502,-1328,-394,105,51,727
29.69699999999989,-4278,-2644,7384,408,-1474,-327,73,13,751
29.708999999999833,-4044,-2694,7872,471,-1705,-267,10,-67,730
29.730999999999995,-4090,-2740,7928,511,-1524,-290,-2,-108,733
29.742999999999938,-3520,-2564,8372,609,-1062,-309,-29,-146,717
29.764999999999873,-3444,-2600,7670,681,-954,-325,-42,-180,704
29.786999999999807,-3438,-2528,7806,634,-854,-318,-49,-231,682
29.798999999999978,-2988,-2300,7572,661,-1182,-258,-65,-250,666
29.820999999999913,-3172,-2348,7804,530,-1273,-365,-59,-269,641
29.83799799999997,-3288,-2184,8064,563,-1311,-235,-62,-278,640
29.84999999999991,-2896,-2082,8242,548,-1136,-206,-66,-305,637
29.871999999999844,-2232,-1970,8492,569,-1099,-208,-69,-312,632
29.884000000000015,-2572,-1870,8510,626,-985,-283,-71,-315,620
29.90599999999995,-2062,-1738,8448,605,-1004,-207,-81,-320,613
29.927999999999884,-2008,-1716,8506,632,-1138,-220,-73,-327,620
29.939999999999827,-1470,-1618,8432,604,-1119,-257,-66,-327,617
29.96199999999999,-1562,-1498,8510,610,-1010,-300,-81,-330,606
29.973999999999933,-1702,-1428,7992,600,-1181,-236,-83,-332,617
29.995999999999867,-1296,-1368,8344,584,-1002,-222,-88,-332,622
30.00799999999981,-1570,-1318,8592,614,-863,-159,-96,-326,612
30.029999999999973,-544,-1052,8194,650,-908,-88,-101,-334,612
30.051999999999907,-782,-880,8208,597,-1383,-105,-99,-339,612
30.06399999999985,-146,-890,7538,653,-2893,-38,-111,-324,614
30.086000000000013,-598,-806,8684,552,-1554,-66,-123,-321,612
30.097999999999956,204,-426,8232,466,-1271,-81,-129,-327,622
30.11999999999989,-546,-714,8976,569,-1140,-124,-129,-325,617
30.131999999999834,-448,-600,9492,725,-498,-68,-136,-320,610
30.153999999999996,306,-482,8976,865,58,-60,-139,-322,608
30.16599999999994,-90,-574,7802,815,-93,-77,-145,-311,614
30.187999999999874,-402,-284,8164,752,-835,9,-146,-302,617
30.20999999999981,-294,-120,8398,743,-880,238,-144,-305,620
30.22199999999998,452,24,8026,651,-865,239,-148,-289,617
30.243999999999915,692,-70,8760,582,-1361,211,-157,-283,619
30.255999999999858,850,-14,8852,687,-1059,193,-157,-286,619
30.277999999999793,1272,58,7682,640,-885,146,-164,-275,614
30.289999999999964,946,176,8352,581,-872,90,-174,-278,631
30.311999999999898,1108,252,7910,558,-1006,132,-168,-269,625
30.333999999999833,1486,368,8484,568,-1125,178,-178,-279,625
30.346000000000004,1974,476,7756,631,-1186,193,-193,-265,612
30.367999999999938,1938,458,7120,570,-1668,127,-199,-259,629
30.37999999999988,1542,388,7796,500,-1743,194,-204,-256,608
30.401999999999816,2634,258,8668,510,-3029,382,-213,-263,616
30.413999999999987,2726,640,8478,457,-1231,300,-230,-240,602
30.435999999999922,3054,734,6758,591,-1827,263,-242,-237,600
30.457999999999856,2710,656,7334,542,-1795,258,-247,-240,595
30.4699999999998,3100,696,7214,642,-1419,355,-254,-235,592
30.491999999999962,3656,892,6826,589,-960,278,-270,-229,586
30.503999999999905,3398,876,6858,602,-1265,329,-270,-224,589
30.52599999999984,3492,974,6372,497,-1686,488,-277,-221,574
30.53800000000001,4558,1140,6186,576,-1464,468,-282,-229,565
30.559999999999945,4396,1022,6602,562,-1588,466,-283,-230,564
30.57199999999989,5098,1182,6298,575,-1485,460,-299,-218,560
30.593999999999824,4912,1212,5670,555,-1307,381,-299,-226,546
30.615999999999985,4498,1134,5592,546,-854,340,-312,-217,552
30.62799999999993,5372,1192,5526,420,-990,523,-312,-232,547
30.649999999999864,5316,1202,5580,345,-1280,381,-318,-213,541
30.661999999999807,5400,1024,5502,454,-1143,464,-325,-216,536
30.68399999999997,5820,1058,5126,465,-722,396,-326,-202,535
30.695999999999913,5400,884,4296,363,-1272,322,-329,-220,525
30.717999999999847,4978,1060,5318,443,-1108,408,-336,-220,521
30.74000000000001,5810,942,4550,511,-1021,623,-339,-205,513
30.751999999999953,6752,1114,4178,441,-1299,543,-331,-215,509
30.773999999999887,6236,1166,4718,355,-1512,450,-340,-211,498
30.78599999999983,6154,1012,4766,451,-1702,574,-351,-205,487
30.807999999999993,6616,1106,4712,515,-1094,463,-345,-216,481
30.819999999999936,6560,994,3780,486,-979,469,-357,-213,481
30.84199999999987,6352,950,4692,439,-648,435,-358,-202,466
30.863999999999805,6956,874,4218,537,-50,520,-359,-218,472
30.875999999999976,6762,876,3824,444,19,364,-366,-224,476
30.89799999999991,6126,648,3970,460,-23,485,-352,-213,469
30.909999999999854,6436,770,3956,407,-90,535,-362,-213,481
30.932000000000016,6546,670,4504,444,113,586,-356,-225,473
30.94399999999996,7332,728,3624,506,37,543,-351,-217,466
30.965999999999894,7082,740,3756,407,-33,439,-357,-216,476
30.977999999999838,6408,652,4036,399,-137,463,-349,-226,479
31.0,5976,568,4168,433,76,544,-358,-222,473
31.021999999999935,6916,628,3860,446,188,691,-349,-226,469
31.033999999999878,6940,574,4448,389,180,586,-358,-222,482
31.055999999999813,7198,544,4694,465,73,657,-345,-221,481
31.067999999999984,7068,458,4644,513,14,538,-340,-226,484
31.089999999999918,6644,278,4630,590,89,601,-340,-216,479
31.10199999999986,6410,330,4344,545,-148,538,-341,-225,475
31.123999999999796,5490,380,4524,545,-63,603,-334,-235,487
31.145999999999958,5274,372,4362,582,24,786,-340,-224,479
31.1579999999999,6174,296,4096,606,98,988,-336,-225,487
31.179999999999836,6888,198,4022,531,57,897,-328,-218,484
31.192000000000007,6774,92,4380,528,66,855,-325,-229,486
31.213999999999942,7008,-98,4292,592,95,887,-331,-220,492
31.225999999999885,6436,-274,4294,583,238,822,-318,-236,488
31.24799999999982,6272,-546,3794,647,281,965,-328,-234,491
31.269999999999982,6458,-630,3648,561,255,928,-314,-235,492
31.281999999999925,5950,-654,3814,503,212,879,-311,-229,493
31.30399999999986,6724,-762,3852,534,130,1127,-311,-229,498
31.315999999999804,6216,-940,4078,452,237,1267,-313,-246,493
31.337999999999965,7134,-946,3538,451,520,1089,-294,-236,503
31.34999999999991,6916,-1024,3756,259,547,988,-307,-235,502
31.371999999999844,6722,-1154,4618,277,567,977,-293,-248,504
31.384000000000015,7676,-1142,4438,344,555,993,-289,-239,505
31.40599999999995,7024,-1414,4636,334,511,823,-282,-241,515
31.427999999999884,6264,-1634,4950,372,455,843,-280,-237,509
31.439999999999827,6898,-1710,4596,431,359,898,-278,-243,511
31.46199999999999,6608,-1768,4712,374,553,789,-271,-240,516
31.473999999999933,6592,-1864,4876,383,682,871,-263,-237,521
31.495999999999867,6938,-1818,4684,369,825,759,-256,-248,518
31.50799999999981,6692,-2018,5092,360,956,810,-256,-240,518
31.529999999999973,7856,-1808,4536,345,721,831,-255,-244,522
31.551999999999907,6716,-1970,5490,199,551,599,-244,-237,525
31.56399999999985,6164,-2122,5698,317,680,718,-234,-243,518
31.586000000000013,6652,-2252,5390,285,760,766,-232,-235,528
31.597999999999956,6710,-2112,5252,230,656,634,-236,-239,527
31.61999999999989,5560,-2198,6086,173,673,628,-224,-226,529
31.631999999999834,5060,-2066,6172,183,878,701,-215,-235,523
31.653999999999996,5416,-2272,6364,247,936,899,-209,-226,529
31.66599999999994,6574,-2268,6380,180,876,835,-219,-234,529
31.687999999999874,6176,-2276,6700,175,766,615,-209,-218,527
31.70999999999981,5142,-2354,7470,242,651,649,-210,-220,537
31.72199999999998,4918,-2294,6754,369,796,689,-209,-221,541
31.743999999999915,4824,-2298,6246,314,705,760,-210,-225,537
31.755999999999858,4444,-2252,6438,259,519,721,-207,-221,541
31.777999999999793,3906,-2388,5968,243,398,760,-209,-216,546
31.789999999999964,3350,-2470,6676,224,346,888,-199,-198,527
31.811999999999898,3796,-2618,6250,248,488,1001,-202,-198,534
31.838997999999947,4306,-2626,6118,188,476,1034,-209,-196,546
31.850999999999885,4666,-2620,6346,48,439,989,-207,-191,546
31.86299999999983,4682,-2662,6198,85,374,998,-205,-192,545
31.88499999999999,4550,-2570,6942,64,462,997,-205,-182,549
31.896999999999935,3944,-2958,6532,-90,543,827,-217,-164,557
31.91899999999987,4448,-2844,6694,16,618,994,-213,-159,568
31.930999999999813,4238,-3118,7196,-57,573,948,-224,-150,567
31.952999999999975,4264,-3112,7236,41,791,877,-217,-149,561
31.97499999999991,4096,-3064,7300,31,870,835,-211,-132,586
31.986999999999853,4084,-3032,7490,91,637,758,-213,-129,590
32.009000000000015,3388,-2926,7516,137,991,685,-205,-116,604
32.02099999999996,3374,-3162,7458,134,624,784,-194,-102,606
32.04299999999989,3820,-3090,8476,204,1358,801,-176,-101,626
32.06499999999983,3790,-3158,7022,225,940,657,-153,-92,622
32.077,3104,-3258,8272,96,776,637,-140,-86,619
32.09899999999993,3212,-2972,7568,278,1005,551,-129,-99,615
32.110999999999876,2648,-3512,7664,181,477,582,-100,-110,617
32.13299999999981,3050,-3606,8708,198,738,617,-92,-113,609
32.14499999999998,3072,-3352,7930,253,1231,388,-69,-120,603
32.166999999999916,3096,-3460,9054,318,2194,439,-67,-118,597
32.17899999999986,3326,-3380,8806,268,1558,158,-50,-134,580
32.200999999999794,2490,-3456,10312,383,2234,34,-37,-145,586
32.212999999999965,2132,-3316,8396,456,1617,-61,-25,-140,577
32.2349999999999,978,-3384,9472,480,2164,-245,-12,-149,573
32.256999999999834,530,-3128,8704,573,1807,-33,6,-160,558
32.269000000000005,596,-3270,9012,632,1438,125,8,-163,558
32.29099999999994,1024,-2930,9516,633,1650,-69,21,-177,547
32.302999999999884,-30,-2944,9502,824,1581,-216,27,-175,541
32.32499999999982,-1528,-2890,8604,944,1675,-223,38,-179,542
32.33699999999999,-1818,-2834,8660,967,2143,2,43,-192,540
32.358999999999924,-902,-2448,7000,877,1609,327,44,-188,541
32.38099999999986,480,-2022,8172,720,1034,271,60,-197,533
32.3929999999998,-1294,-2022,8802,714,551,29,71,-186,524
32.414999999999964,-2266,-2170,8592,771,831,215,75,-192,521
32.42699999999991,-1320,-1726,9748,823,1297,358,78,-186,524
32.44899999999984,-1294,-1722,9200,958,1538,228,73,-191,519
32.46100000000001,-880,-1636,9120,1196,1891,232,81,-183,510
32.48299999999995,-1334,-1358,7192,969,2069,7,95,-186,512
32.50499999999988,-2082,-1192,8668,969,1571,13,106,-179,494
32.516999999999825,-3312,-1342,8144,1089,1092,330,96,-182,497
32.53899999999999,-2414,-966,6272,1536,3159,195,119,-180,496
32.55099999999993,-3862,-986,6092,1147,1270,346,123,-169,482
32.572999999999865,-2630,-222,7744,927,1276,454,133,-164,473
32.58499999999981,-3464,-382,6798,1105,1389,281,131,-173,474
32.60699999999997,-4590,-560,6924,779,814,508,142,-156,468
32.618999999999915,-3862,-250,7746,732,1559,706,145,-164,466
32.64099999999985,-3424,470,5464,769,1759,529,146,-155,457
32.66300000000001,-4044,372,8212,621,1926,427,141,-153,455
32.674999999999955,-3482,812,7018,712,1583,400,157,-139,442
32.69699999999989,-4006,826,7400,606,1248,246,162,-154,432
32.70899999999983,-4542,760,8120,715,1216,323,161,-140,431
32.730999999999995,-3986,1010,7356,840,898,306,158,-140,429
32.74299999999994,-4800,1128,6680,968,286,98,167,-139,418
32.76499999999987,-5794,896,6070,815,283,202,174,-129,411
32.78699999999981,-5226,1158,6606,546,916,433,182,-135,409
32.79899999999998,-3988,1538,7342,644,68,413,168,-127,402
32.82099999999991,-4632,1504,7252,938,119,92,175,-125,405
32.832999999999856,-5804,1144,5862,998,202,144,175,-122,414
32.85500000000002,-5476,1330,5474,783,279,318,176,-118,396
32.86699999999996,-4118,1800,7166,759,142,433,186,-121,404
32.888999999999896,-4102,2052,6748,1058,-235,120,178,-115,405
32.91099999999983,-4680,2030,6358,1079,-269,64,162,-111,396
32.923,-4720,1912,5514,998,-35,51,174,-106,399
32.944999999999936,-4070,2112,6066,881,79,92,171,-96,396
32.95699999999988,-3222,2334,6408,912,66,-86,173,-99,402
32.978999999999814,-3680,2216,5800,1001,-149,-265,184,-103,399
32.990999999999985,-3492,2162,5726,1020,-210,-386,173,-102,402
33.01299999999992,-4288,1980,5304,967,-253,-495,170,-102,402
33.024999999999864,-3956,2100,5338,971,-185,-448,171,-96,411
33.0469999999998,-3516,2352,5366,948,-395,-495,171,-98,394
33.06899999999996,-3722,2208,4876,970,-707,-622,157,-91,389
33.080999999999904,-4242,2094,4978,861,-729,-672,169,-108,411
33.10299999999984,-3916,2316,5156,775,-346,-680,164,-98,404
33.11500000000001,-3920,2276,5496,721,-157,-766,168,-99,414
33.136999999999944,-3732,2400,5794,774,-366,-908,167,-108,420
33.14899999999989,-4692,2220,5610,834,-593,-1073,161,-99,405
33.17099999999982,-5940,1966,5444,793,-437,-993,163,-102,419
33.192999999999984,-5336,2124,5178,741,-224,-817,171,-98,408
33.20499999999993,-4342,2224,5220,704,-125,-911,161,-110,414
33.22699999999986,-4934,2148,5526,684,-125,-1033,174,-116,420
33.238999999999805,-4858,2192,5076,820,-330,-1133,173,-115,412
33.26099999999997,-6600,1916,4100,703,-511,-1107,170,-110,414
33.27299999999991,-6102,1794,4306,528,-233,-829,169,-118,413
33.294999999999845,-4482,2038,5462,416,-106,-793,164,-113,413
33.307000000000016,-4628,2022,5208,721,-608,-1069,171,-116,415
33.32899999999995,-6166,1628,3380,622,-439,-1100,175,-117,424
33.350999999999885,-6128,1680,3490,310,-255,-929,167,-121,423
33.36299999999983,-5508,1768,3842,201,-238,-916,171,-121,418
33.38499999999999,-5796,1758,3966,150,-304,-972,167,-126,425
33.396999999999935,-6190,1578,3748,94,-390,-952,161,-140,429
33.41899999999987,-5758,1646,4566,-122,-138,-841,168,-150,424
33.43099999999981,-5528,1852,5078,-64,-181,-861,164,-141,420
33.452999999999975,-5338,1748,5306,-61,-199,-836,169,-149,425
33.47499999999991,-5272,1570,5316,-38,-235,-856,175,-148,426
33.48699999999985,-4954,1476,5452,-40,-326,-904,176,-159,423
33.509000000000015,-5144,1392,5382,-71,-214,-959,175,-155,431
33.52099999999996,-5482,1332,5586,-89,-241,-1025,176,-159,430
33.54299999999989,-5396,1474,6152,-97,-237,-990,170,-178,429
33.554999999999836,-4942,2054,5838,-63,-190,-1025,163,-178,436
33.577,-4908,1368,5544,-158,103,-1102,174,-177,437
33.59899999999993,-4538,1128,6826,-206,271,-1174,174,-182,435
33.610999999999876,-5046,802,5812,17,449,-1462,175,-188,433
33.63299999999981,-6154,424,5258,5,572,-1499,170,-188,436
33.64499999999998,-6592,382,5120,40,389,-1335,184,-187,430
33.666999999999916,-6888,382,5044,4,327,-1138,176,-199,435
33.67899999999986,-5708,286,5032,-27,14,-937,178,-201,424
33.700999999999794,-5986,100,5286,-163,66,-1132,186,-212,415
33.712999999999965,-6100,-70,5880,-177,-42,-1147,179,-222,413
33.7349999999999,-7144,-554,5868,-145,-14,-1149,188,-222,423
33.756999999999834,-6462,-656,6180,-90,-151,-976,180,-221,419
33.769000000000005,-6442,-976,5358,-22,-127,-975,187,-236,426
33.79099999999994,-6496,-1008,5086,-45,-145,-947,184,-232,427
33.802999999999884,-7002,-1140,5122,-82,-56,-906,186,-243,432
33.82499999999982,-6874,-1046,4984,-97,-34,-848,181,-245,425
33.841997999999876,-6494,-1046,5078,-148,-72,-750,174,-248,427
33.85428499999989,-6254,-1002,5020,-152,-211,-793,184,-245,425
33.875999999999976,-6610,-1228,4902,-161,-330,-791,181,-260,415
33.89799999999991,-6654,-1436,4714,-167,-403,-733,186,-268,425
33.909999999999854,-6458,-1608,4742,-356,-301,-642,184,-255,415
33.932000000000016,-6130,-1542,5674,-446,-159,-676,180,-269,426
33.94399999999996,-5818,-1530,6476,-399,-131,-628,185,-277,417
33.965999999999894,-5690,-1538,6316,-270,-383,-693,181,-280,420
33.97799999999984,-6136,-1850,5530,-125,-526,-713,184,-288,420
34.0,-6684,-2228,4384,-229,-411,-653,168,-284,421
34.021999999999935,-5804,-2216,5314,-481,23,-523,167,-283,411
34.03399999999988,-5538,-2090,6206,-445,-103,-618,164,-291,415
34.05599999999981,-6176,-2052,6094,-282,-185,-633,171,-298,418
34.067999999999984,-6556,-2360,5266,-345,-180,-500,164,-303,413
34.08999999999992,-5462,-2102,5660,-481,8,-465,165,-297,405
34.10199999999986,-5602,-2128,6304,-411,-30,-545,163,-297,398
34.123999999999796,-6116,-2272,6042,-360,-179,-519,163,-310,407
34.14599999999996,-5926,-2452,5528,-440,-124,-460,169,-306,404
34.1579999999999,-5708,-2492,6204,-458,-152,-500,155,-318,387
34.179999999999836,-6134,-2658,6892,-445,-153,-428,167,-326,399
34.19200000000001,-5476,-2492,7242,-275,-202,-408,151,-315,383
34.21399999999994,-5774,-2714,6108,-192,-301,-391,155,-303,384
34.225999999999885,-5596,-2840,5866,-304,-111,-379,151,-315,381
34.24799999999982,-5750,-2792,6502,-383,86,-362,155,-316,380
34.25999999999999,-4984,-2742,6748,-295,4,-325,146,-299,362
34.281999999999925,-5294,-2816,6632,-167,-185,-423,151,-322,366
34.30399999999986,-5422,-2952,6492,-114,-199,-293,148,-310,355
34.3159999999998,-5520,-2942,6078,-139,-169,-310,144,-312,347
34.337999999999965,-4720,-2876,6482,-165,-101,-210,142,-308,344
34.34999999999991,-4632,-2738,7040,-116,-102,-335,152,-303,344
34.371999999999844,-4806,-2798,6450,7,-187,-415,151,-310,333
34.394000000000005,-5258,-2978,7020,-26,-130,-374,157,-303,317
34.40599999999995,-5002,-2944,7370,55,-47,-301,161,-287,314
34.427999999999884,-4790,-2978,7022,110,-18,-343,159,-286,317
