Tiempo,AccX,AccY,AccZ,GyrX,GyrY,GyrZ,MagX,MagY,MagZ
0.0,586,-486,8474,-28,47,-10,-165,-183,-261
0.021999999999934516,552,-456,8322,5,-73,-11,-158,-186,-264
0.0340000000001055,452,-482,8192,8,-60,-10,-161,-183,-273
0.05600000000004002,552,-464,8198,-28,37,-5,-168,-178,-256
0.06799999999975626,602,-420,8256,-17,11,-9,-171,-187,-258
0.09000000000014552,504,-490,8320,-15,4,-6,-167,-182,-262
0.10199999999986176,546,-482,8336,-26,38,-5,-162,-182,-258
0.12399999999979627,526,-458,8392,-11,-12,-9,-162,-182,-258
0.1459999999997308,506,-462,8356,-6,-15,-5,-167,-179,-260
0.15799999999990177,582,-486,8356,-14,-3,-10,-165,-188,-273
0.1799999999998363,608,-438,8326,-5,-22,-5,-165,-188,-271
0.19200000000000728,548,-490,8314,-15,13,-10,-171,-184,-258
0.2139999999999418,600,-436,8326,-20,9,-4,-170,-180,-261
0.22600000000011278,562,-484,8286,-14,0,-7,-168,-188,-261
0.2480000000000473,558,-452,8354,-18,13,-3,-171,-184,-260
0.25999999999976353,534,-470,8390,-11,-15,-11,-168,-183,-266
0.2820000000001528,586,-462,8356,-9,-19,-8,-168,-183,-256
0.3040000000000873,546,-424,8352,-20,8,-12,-174,-187,-262
0.31599999999980355,576,-472,8336,-10,-10,-8,-173,-180,-259
0.33799999999973807,534,-474,8334,-12,-8,-8,-168,-188,-266
0.34999999999990905,538,-434,8326,-15,20,-6,-164,-184,-272
0.37199999999984357,556,-504,8346,-14,-2,-11,-165,-191,-256
0.38400000000001455,580,-476,8316,-9,-13,-9,-167,-192,-265
0.4109979999998359,564,-454,8356,-19,9,-11,-161,-188,-261
0.42299999999977445,570,-466,8292,-5,-22,-10,-171,-177,-258
0.44499999999970896,620,-468,8320,-15,-5,-8,-162,-189,-272
0.45699999999987995,570,-450,8310,-16,4,-4,-159,-187,-258
0.47899999999981446,544,-440,8302,-9,-3,-11,-161,-170,-254
0.49099999999998545,582,-414,8328,-14,3,-10,-162,-189,-260
0.51299999999992,572,-440,8306,-10,-8,-8,-168,-175,-268
0.525000000000091,550,-502,8360,-12,6,-5,-169,-187,-258
0.5470000000000255,584,-468,8390,-11,1,-5,-176,-187,-262
0.56899999999996,574,-456,8332,-10,-4,-7,-164,-184,-260
0.581000000000131,588,-494,8350,-12,2,-9,-168,-188,-254
0.6030000000000655,518,-470,8352,-13,-6,-7,-159,-177,-267
0.6149999999997817,596,-458,8308,-11,3,-9,-162,-184,-253
0.6369999999997162,594,-452,8334,-9,-6,-9,-174,-182,-274
0.6489999999998872,524,-446,8336,-12,7,-7,-169,-174,-270
0.6709999999998217,516,-512,8340,-7,-6,-5,-158,-186,-264
0.6929999999997563,580,-448,8328,-9,-4,-4,-174,-184,-262
0.7049999999999272,596,-428,8352,-11,-2,-9,-174,-189,-262
0.7269999999998618,572,-466,8376,-11,-2,-6,-170,-180,-266
0.7390000000000327,562,-464,8322,-12,7,-9,-168,-178,-268
0.7609999999999673,540,-446,8360,-12,-3,-7,-163,-188,-252
0.7730000000001382,504,-470,8346,-14,0,-7,-158,-188,-266
0.7950000000000728,556,-484,8316,-11,-8,-6,-165,-186,-264
0.806999999999789,612,-490,8360,-9,-4,-4,-168,-183,-266
0.8289999999997235,570,-464,8360,-13,2,-11,-168,-188,-273
0.8510000000001128,590,-430,8306,-10,-3,-5,-167,-182,-262
0.862999999999829,588,-422,8338,-9,2,-9,-178,-183,-256
0.8849999999997635,588,-462,8290,-11,-5,-11,-170,-180,-266
0.8969999999999345,588,-466,8346,-11,-1,-7,-170,-180,-266
0.918999999999869,576,-428,8352,-9,-8,-10,-159,-172,-255
0.93100000000004,566,-442,8340,-7,2,-5,-163,-186,-259
0.9529999999999745,582,-424,8324,-17,1,-10,-153,-201,-264
0.974999999999909,602,-466,8362,-11,-3,-12,-161,-178,-261
0.98700000000008,570,-424,8304,-17,1,-8,-170,-178,-261
1.0090000000000146,582,-498,8316,-15,1,-11,-159,-182,-265
1.0209999999997308,574,-492,8334,-17,2,-8,-167,-187,-265
1.04300000000012,570,-434,8368,-11,-3,-6,-169,-192,-255
1.0549999999998363,570,-436,8340,-5,0,-7,-162,-184,-258
1.0769999999997708,594,-486,8362,-10,-1,-8,-168,-183,-256
1.09900000000016,534,-434,8354,-11,2,-6,-170,-183,-259
1.1109999999998763,612,-446,8330,-9,-8,-5,-169,-184,-262
1.1329999999998108,516,-468,8334,-14,5,-8,-176,-187,-270
1.1449999999999818,578,-498,8322,-14,1,-10,-164,-174,-267
1.1669999999999163,638,-442,8350,-11,-2,-4,-165,-173,-268
1.1790000000000873,602,-452,8334,-14,2,-5,-159,-179,-251
1.2010000000000218,570,-426,8324,-13,-5,-10,-174,-187,-260
1.212999999999738,590,-406,8288,-15,-4,-3,-169,-182,-262
1.2350000000001273,626,-460,8348,-8,1,-7,-169,-189,-274
1.2570000000000618,560,-462,8358,-11,0,-9,-163,-191,-266
1.268999999999778,562,-516,8294,-11,-3,-6,-168,-186,-254
1.2909999999997126,618,-482,8368,-10,-5,-8,-164,-174,-262
1.3029999999998836,580,-460,8334,-12,-1,-8,-164,-184,-260
1.324999999999818,570,-428,8384,-8,0,-9,-174,-182,-265
1.336999999999989,600,-462,8352,-11,1,-6,-157,-179,-265
1.3589999999999236,550,-466,8350,-7,1,-7,-174,-182,-262
1.3809999999998581,580,-470,8278,-9,1,-10,-174,-182,-258
1.393000000000029,560,-442,8354,-12,-5,-7,-169,-187,-260
1.4149999999999636,578,-486,8346,-8,1,-8,-168,-193,-271
1.4270000000001346,494,-414,8352,-12,-7,-5,-174,-192,-251
1.4490000000000691,568,-464,8326,-15,-2,-5,-163,-186,-254
1.4609999999997854,572,-488,8318,-15,3,-9,-162,-179,-260
1.4829999999997199,594,-420,8350,-6,-8,-9,-164,-182,-260
1.5050000000001091,546,-470,8320,-16,5,-5,-173,-178,-266
1.5169999999998254,592,-476,8312,-14,1,-6,-171,-182,-258
1.53899999999976,536,-432,8290,-8,-3,-4,-168,-178,-261
1.5509999999999309,580,-472,8350,-12,1,-10,-163,-180,-271
1.5729999999998654,594,-470,8368,-12,-12,-5,-163,-180,-259
1.5850000000000364,606,-388,8390,-14,-2,-8,-168,-186,-259
1.606999999999971,538,-448,8368,-14,0,-8,-165,-188,-259
1.6190000000001419,586,-466,8302,-12,-3,-6,-168,-183,-264
1.6410000000000764,636,-438,8322,-9,-1,-6,-163,-173,-254
1.663000000000011,562,-456,8350,-11,-5,-8,-159,-182,-265
1.6749999999997272,564,-430,8338,-12,1,-7,-164,-182,-262
1.6970000000001164,558,-442,8330,-11,-7,-7,-167,-177,-251
1.7089999999998327,612,-478,8320,-12,-4,-7,-159,-174,-258
1.7309999999997672,570,-436,8330,-12,2,-10,-159,-182,-274
1.7429999999999382,556,-422,8338,-9,-8,-8,-163,-178,-264
1.7649999999998727,564,-448,8366,-14,3,-6,-175,-188,-266
1.7869999999998072,542,-432,8376,26,-120,-11,-165,-178,-268
1.7989999999999782,510,-456,8386,94,-328,-20,-165,-186,-266
1.8209999999999127,-198,-1690,8466,-287,812,-339,-164,-182,-265
1.8330000000000837,-8,-694,12526,-370,1353,-244,-173,-183,-259
1.8550000000000182,1082,758,8190,31,-94,176,-174,-182,-251
1.8669999999997344,1078,-84,8490,90,-338,121,-176,-182,-255
1.8890000000001237,602,-472,8334,91,-334,-13,-165,-178,-245
1.9110000000000582,528,-490,8382,-38,83,-4,-174,-174,-236
1.9229999999997744,478,-496,8366,-38,79,-8,-159,-172,-253
1.944999999999709,516,-462,8324,34,-145,-13,-164,-182,-246
1.95699999999988,480,-504,8360,-43,96,-6,-156,-186,-247
1.9789999999998145,438,-432,8368,-6,-9,-5,-161,-180,-247
1.9909999999999854,-324,-842,8368,-50,114,-223,-158,-178,-247
2.01299999999992,492,-624,8312,-9,-6,-86,-168,-173,-240
2.025000000000091,644,-430,8392,-97,287,315,-165,-178,-242
2.0470000000000255,800,-382,8310,-34,95,103,-159,-177,-239
2.06899999999996,804,-324,8294,-16,-8,5,-161,-173,-230
2.081000000000131,578,-612,8358,9,-82,-44,-167,-179,-222
2.1030000000000655,314,-634,8320,23,-111,-17,-157,-172,-231
2.1149999999997817,500,-544,8452,-47,130,-90,-157,-179,-224
2.1369999999997162,524,-122,8320,-41,86,10,-155,-174,-219
2.1489999999998872,136,-498,8410,48,-204,67,-156,-175,-235
2.1709999999998217,714,-430,8386,14,-79,132,-164,-177,-222
2.1929999999997563,302,-290,8310,-11,7,50,-163,-175,-221
2.2049999999999272,-692,52,8260,-136,399,21,-156,-180,-225
2.2269999999998618,64,-828,8360,4,-37,389,-161,-180,-218
2.2390000000000327,1074,-520,9216,-6,-35,495,-167,-179,-210
2.2609999999999673,1862,334,8326,-2,2,-62,-151,-183,-211
2.2730000000001382,490,-72,8538,-22,-12,-706,-165,-175,-204
2.2950000000000728,392,-600,7816,-22,52,-1053,-157,-182,-207
2.306999999999789,-64,-702,8306,-4,11,-142,-169,-182,-219
2.3289999999997235,-106,-774,8554,24,-19,-252,-161,-175,-218
2.3510000000001128,914,-332,8540,0,22,-237,-164,-167,-215
2.362999999999829,-206,-622,8644,8,16,-261,-168,-175,-223
2.3849999999997635,524,-460,8458,-17,-6,-206,-167,-167,-224
2.3969999999999345,582,-380,8362,-22,-1,-146,-167,-159,-234
2.4139979999999923,874,-194,8328,26,-2,-418,-163,-165,-233
2.436000000000149,118,-488,8418,391,-426,-588,-165,-173,-228
2.4479999999998654,192,-1162,8448,230,-293,-508,-168,-173,-237
2.4699999999998,1256,-294,8336,193,-487,167,-174,-169,-243
2.4919999999997344,2900,34,8460,153,-523,-260,-170,-178,-247
2.5039999999999054,3278,1056,8066,11,-298,-1363,-164,-167,-251
2.52599999999984,-1858,-1308,9270,-85,-248,-1483,-165,-175,-259
2.538000000000011,810,-508,8744,-34,-438,-748,-169,-162,-279
2.5599999999999454,3406,1364,7872,-178,-388,-967,-178,-168,-278
2.5720000000001164,322,0,8332,-96,-456,-740,-175,-158,-292
2.594000000000051,4002,1738,7580,-455,469,-707,-178,-160,-314
2.6159999999999854,1130,62,8592,-502,760,-991,-182,-143,-328
2.6280000000001564,400,-2202,6408,-342,-111,-1957,-192,-143,-326
2.650000000000091,708,-950,9360,-159,-295,-1732,-196,-139,-332
2.661999999999807,-1856,-1460,7306,-54,-311,-1222,-193,-134,-332
2.6839999999997417,1074,-326,9878,-70,-513,-417,-188,-126,-349
2.6959999999999127,1690,-260,10682,75,1113,-510,-187,-120,-343
2.717999999999847,1204,-868,9666,133,1024,-686,-178,-125,-323
2.7399999999997817,1728,-160,8758,266,1841,-1256,-181,-124,-315
2.7519999999999527,94,280,8470,463,1596,-1564,-168,-122,-295
2.7739999999998872,-1566,-654,8962,398,1314,-962,-152,-121,-298
2.786000000000058,106,774,8388,151,-443,-292,-128,-131,-306
2.8079999999999927,790,980,8756,192,-2035,-245,-104,-139,-296
2.819999999999709,762,482,9522,331,-1306,-467,-50,-136,-289
2.8420000000000982,638,-308,9568,305,-1682,-140,-25,-137,-278
2.8539999999998145,2112,530,10386,279,-797,-376,9,-144,-272
2.875999999999749,-124,-736,7464,420,-387,-791,53,-162,-253
2.8980000000001382,1476,142,8624,293,-259,-435,107,-180,-202
2.9099999999998545,2484,538,10380,463,-743,-551,135,-187,-203
2.931999999999789,302,152,8152,640,-410,-389,170,-188,-163
2.94399999999996,1738,-60,7412,774,-166,-411,203,-210,-129
2.9659999999998945,2970,1920,9014,606,-168,-1423,232,-210,-45
2.9780000000000655,1752,940,7450,577,59,-2291,240,-224,-13
3.0,248,982,7536,254,-92,-2261,255,-229,25
3.0219999999999345,94,860,7292,-341,-747,-1098,256,-237,66
3.0340000000001055,56,1126,6832,-794,-1593,-247,257,-244,127
3.05600000000004,2006,1342,9996,-1033,-678,-77,245,-251,168
3.0679999999997563,3322,908,9572,-379,185,-505,231,-244,199
3.0900000000001455,1872,712,8508,-165,439,-917,224,-229,216
3.1019999999998618,1404,1032,9814,64,952,-994,187,-231,252
3.1239999999997963,268,-20,7190,206,1060,-889,167,-217,277
3.1359999999999673,-556,-44,5984,-118,342,-326,156,-221,285
3.1579999999999018,734,722,7668,-373,-700,-174,140,-197,296
3.1799999999998363,796,620,7516,-252,-170,-40,101,-184,303
3.1920000000000073,994,498,7486,-224,-239,-89,87,-174,308
3.213999999999942,1272,914,8586,-313,-452,-50,78,-168,314
3.2260000000001128,1850,1026,9536,-170,-126,-265,67,-164,308
3.2480000000000473,1178,488,8158,-37,103,-321,46,-151,315
3.2599999999997635,386,138,6800,-115,-461,-118,30,-130,314
3.282000000000153,984,340,8038,-200,-354,-27,15,-135,300
3.3040000000000873,1614,1120,8174,-102,-264,-21,3,-127,304
3.3159999999998035,1024,654,7594,-8,-349,-241,-21,-124,296
3.337999999999738,2010,838,8550,-134,-398,-112,-30,-115,297
3.349999999999909,1516,626,8086,-6,241,-257,-30,-107,292
3.3719999999998436,1322,764,8112,-3,289,-257,-46,-96,289
3.3840000000000146,922,828,8454,41,295,-240,-39,-89,280
3.405999999999949,1334,796,8508,122,771,-206,-59,-87,268
3.4279999999998836,1156,778,7154,67,330,-298,-59,-79,273
3.4400000000000546,868,756,7620,-108,-259,-328,-59,-84,271
3.461999999999989,1040,364,8580,-305,-715,-175,-59,-54,266
3.47400000000016,1282,414,8100,-124,-327,-224,-73,-67,261
3.4960000000000946,1338,48,9148,-103,-371,-134,-65,-68,255
3.507999999999811,1830,828,9082,122,198,-166,-79,-58,260
3.5299999999997453,1120,558,8742,204,657,-284,-93,-46,254
3.5419999999999163,1098,830,7740,131,449,-86,-82,-53,236
3.563999999999851,1096,762,7278,100,16,-174,-84,-45,251
3.5859999999997854,826,286,6664,-77,-938,-121,-90,-44,249
3.5979999999999563,1456,338,6652,-367,-2028,-186,-87,-32,224
3.619999999999891,1704,332,8706,-144,-820,-265,-106,-35,227
3.632000000000062,1982,572,8912,59,-156,-262,-113,-35,224
3.6539999999999964,1812,692,9186,216,862,-259,-119,-26,223
3.6659999999997126,970,296,7748,213,830,-255,-119,-24,223
3.688000000000102,1252,938,7162,4,240,-49,-112,-18,221
3.7100000000000364,1010,564,6696,-58,257,-192,-117,-26,221
3.7219999999997526,1136,824,7996,-198,-332,-27,-116,-27,219
3.744000000000142,1402,856,9676,-156,-628,-10,-118,-20,205
3.755999999999858,1402,1058,8940,328,719,-235,-115,-29,213
3.7779999999997926,1524,1120,9266,508,2727,-349,-112,-21,202
3.7899999999999636,244,1240,6360,362,2024,-36,-115,-13,199
3.811999999999898,-254,1254,6014,48,713,154,-90,-8,204
3.8339999999998327,528,1130,6278,-226,-985,243,-98,-8,209
3.8460000000000036,1636,798,7050,-442,-3002,93,-101,-7,205
3.867999999999938,2296,546,11510,-326,-2240,70,-98,1,199
3.880000000000109,2218,662,10640,141,-152,-168,-118,-7,186
3.9020000000000437,1420,1020,8588,312,809,-147,-117,1,187
3.91399999999976,616,978,8036,269,688,58,-122,-8,178
3.936000000000149,1246,1234,7750,225,741,143,-122,3,180
3.9479999999998654,1432,1200,8172,142,577,13,-117,3,182
3.9699999999998,1012,944,7488,91,114,8,-112,-6,185
3.9919999999997344,812,1094,8154,43,-326,122,-113,5,179
4.003999999999905,1126,1370,8968,130,489,181,-118,0,176
4.02599999999984,1206,1500,7944,30,200,13,-115,3,170
4.038000000000011,982,1352,8294,-59,-120,-21,-128,-7,169
4.059999999999945,894,832,8004,-167,-284,-40,-118,0,162
4.072000000000116,1254,838,8510,-54,1,-21,-119,1,158
4.094000000000051,1148,82,7278,38,-588,-24,-116,5,155
4.1159999999999854,1142,-456,8326,-88,-447,139,-124,8,166
4.128000000000156,1278,20,7976,-105,-146,198,-130,0,155
4.150000000000091,1510,488,7834,77,336,128,-123,7,148
4.161999999999807,1184,772,7684,-84,169,-56,-121,-7,160
4.183999999999742,1492,846,8254,-236,15,-147,-128,-5,150
4.195999999999913,1146,522,8520,-141,269,-152,-129,8,142
4.217999999999847,936,472,7970,-56,72,-8,-124,-3,149
4.239999999999782,924,508,7492,-27,-567,126,-127,-6,142
4.251999999999953,986,644,8070,-45,-832,219,-121,-7,143
4.273999999999887,1432,1166,7732,-62,-752,213,-133,-10,138
4.286000000000058,1474,1172,7630,-4,15,63,-133,-5,138
4.307999999999993,1578,878,8044,-98,132,-107,-139,-1,139
4.319999999999709,1446,720,7894,-191,11,-124,-129,-6,142
4.342000000000098,1182,642,8588,-124,540,-20,-139,-8,135
4.3539999999998145,970,954,8358,-29,184,129,-125,-5,143
4.375999999999749,1050,1046,8324,27,-240,244,-139,-3,144
4.398000000000138,1718,1046,8488,26,-216,175,-130,-10,126
4.414997999999741,1266,1094,7780,-2,-217,104,-140,-20,141
4.427000000000135,1388,850,7658,-38,-617,87,-135,-15,136
4.449000000000069,1618,636,8224,-11,-327,86,-144,-6,137
4.460999999999785,1852,756,8190,-68,-304,52,-138,-20,143
4.48299999999972,1776,582,7720,-272,-511,-154,-140,-20,131
4.494999999999891,1494,844,9080,-350,-608,-12,-136,-11,132
4.516999999999825,1480,1154,9068,-24,78,-25,-140,-17,129
4.53899999999976,2076,818,8842,253,393,17,-152,-12,121
4.550999999999931,1672,256,7670,236,5,-85,-146,-16,125
4.572999999999865,1328,206,7554,232,42,86,-133,-15,138
4.585000000000036,1386,312,7284,137,-382,245,-146,-8,135
4.606999999999971,1734,612,7818,110,-356,333,-140,-17,126
4.619000000000142,1786,614,7900,126,-566,257,-161,-16,132
4.641000000000076,2446,860,9342,255,-86,245,-151,-13,130
4.663000000000011,1858,664,7868,352,328,160,-148,-21,120
4.674999999999727,1538,584,7468,235,335,178,-156,-29,127
4.697000000000116,1328,766,7410,142,196,236,-151,-21,135
4.708999999999833,1422,898,8160,139,276,337,-138,-20,121
4.730999999999767,1682,918,8146,179,281,345,-136,-18,120
4.742999999999938,1948,730,8252,155,520,285,-147,-12,121
4.764999999999873,1658,794,7508,255,857,218,-138,-35,131
4.786999999999807,1356,960,7564,290,1485,177,-141,-8,130
4.798999999999978,900,1194,7556,257,1672,155,-127,-13,130
4.820999999999913,994,1210,8282,111,1366,210,-129,-18,142
4.833000000000084,612,820,6030,95,16,309,-122,-24,130
4.855000000000018,1276,774,8382,-87,-1146,240,-113,-17,145
4.866999999999734,1206,924,8890,-30,-639,187,-123,-15,143
4.889000000000124,1174,1000,8672,81,-22,227,-135,-25,143
4.90099999999984,960,1200,8942,136,303,258,-128,-10,141
4.9229999999997744,1270,1012,8828,348,693,197,-127,-24,144
4.944999999999709,1434,660,7620,365,782,148,-131,-26,142
4.95699999999988,804,530,7138,224,290,152,-122,-13,147
4.9789999999998145,452,1080,7644,34,-88,242,-131,-16,142
4.9909999999999854,846,1318,7730,16,-488,263,-111,-17,143
5.01299999999992,1016,1184,8612,2,-728,345,-131,-11,142
5.025000000000091,1066,1290,9340,251,-19,325,-130,-12,133
5.0470000000000255,1096,1206,8618,446,342,40,-128,-17,145
5.06899999999996,708,848,7320,396,376,80,-125,-15,138
5.081000000000131,1092,1170,7194,248,240,170,-133,-12,141
5.1030000000000655,966,1116,7614,176,262,71,-123,-20,145
5.114999999999782,940,1384,7980,125,4,58,-131,-21,144
5.136999999999716,500,1384,8192,162,92,276,-123,-15,155
5.148999999999887,918,1574,8278,266,276,218,-117,-13,137
5.170999999999822,782,1502,7564,223,160,195,-122,-8,130
5.192999999999756,846,1340,7512,174,-115,247,-128,-7,138
5.204999999999927,990,1400,7702,151,127,286,-125,-7,141
5.226999999999862,1094,1594,8190,95,113,232,-118,-7,145
5.239000000000033,1060,1430,8350,115,180,181,-128,-15,133
5.260999999999967,992,1270,7940,194,886,195,-119,-8,135
5.273000000000138,1132,1134,8548,117,1509,178,-129,-24,142
5.295000000000073,670,1612,7188,51,1221,291,-118,-7,138
5.306999999999789,-234,1996,7734,44,730,172,-106,-2,143
5.3289999999997235,-36,1688,7984,-33,-164,247,-112,-13,149
5.351000000000113,250,1888,8812,39,-631,283,-105,-8,144
5.362999999999829,744,1786,9048,201,-132,290,-116,-10,150
5.3849999999997635,202,1778,8384,408,690,245,-115,-13,139
5.3969999999999345,-224,1688,7874,402,617,263,-119,-11,144
5.418999999999869,36,1716,8098,312,622,289,-107,-1,151
5.43100000000004,234,1754,7864,281,173,234,-115,-6,151
5.4529999999999745,264,1906,7740,279,-219,210,-105,-6,151
5.474999999999909,230,1944,9464,386,42,191,-106,-12,145
5.48700000000008,-42,2066,8168,372,15,174,-108,-5,153
5.5090000000000146,-38,1860,7498,331,-88,219,-111,-7,143
5.520999999999731,-82,1818,7166,336,17,180,-111,-10,133
5.54300000000012,-174,1954,7322,189,-341,214,-115,1,132
5.554999999999836,-232,1988,7784,220,-283,119,-122,-1,132
5.576999999999771,452,2336,7650,241,-618,164,-127,-6,139
5.588999999999942,40,1888,7850,248,-472,135,-113,-5,133
5.610999999999876,448,1796,8254,188,-105,157,-124,-11,135
5.632999999999811,628,1852,7536,148,466,199,-123,-7,126
5.644999999999982,534,1810,7468,211,521,133,-124,-1,127
5.666999999999916,394,1754,7482,88,188,116,-115,-1,139
5.679000000000087,546,1888,7582,50,-40,79,-119,-3,135
5.701000000000022,630,2156,8106,84,-115,41,-125,0,131
5.712999999999738,200,2212,8998,132,10,3,-122,-13,127
5.735000000000127,504,2174,8528,375,662,13,-115,6,135
5.757000000000062,368,2196,7512,374,683,-13,-123,-7,124
5.768999999999778,-70,2284,6972,232,188,34,-124,-6,135
5.790999999999713,-142,2470,7430,163,67,39,-119,1,130
5.802999999999884,-120,2826,7518,135,-353,80,-116,2,131
5.824999999999818,-68,2678,8098,140,-406,99,-123,17,131
5.836999999999989,110,2686,8726,184,189,121,-122,1,115
5.858999999999924,104,2630,7494,222,474,127,-119,-1,127
5.880999999999858,192,2680,7654,174,594,88,-129,1,120
5.893000000000029,176,2546,7256,51,360,69,-125,2,129
5.914999999999964,82,2396,7648,-19,661,50,-111,5,126
5.927000000000135,126,2484,7380,-114,458,99,-116,-2,126
5.949000000000069,88,2728,7612,-121,100,101,-121,-10,136
5.960999999999785,-104,2430,7804,-130,-116,126,-113,-7,136
5.98299999999972,-550,2692,7946,-57,-1,200,-121,7,129
5.994999999999891,-92,2542,7706,-109,-181,288,-119,3,139
6.016999999999825,-308,2626,7580,-28,-451,277,-115,-8,137
6.03899999999976,-12,2606,8270,41,-658,383,-117,-6,127
6.050999999999931,430,2578,8354,210,63,394,-122,1,130
6.072999999999865,526,2402,9132,227,452,293,-129,-6,127
6.085000000000036,310,2378,7294,332,753,258,-136,-3,127
6.106999999999971,-82,2466,7680,229,893,268,-123,-7,136
6.119000000000142,-238,2600,7740,61,485,318,-134,-6,120
6.141000000000076,-212,2736,7484,167,426,372,-135,-7,129
6.163000000000011,-210,2902,7952,149,433,293,-124,-3,127
6.174999999999727,-310,2892,7832,158,708,229,-118,-7,129
6.197000000000116,-462,2836,7560,129,575,201,-116,-5,141
6.208999999999833,594,2900,7898,230,279,120,-116,-5,136
6.230999999999767,-822,2642,7800,-62,676,218,-113,-12,141
6.242999999999938,-810,2654,7630,30,453,271,-115,-3,139
6.264999999999873,-530,2610,8230,-10,523,299,-110,-8,139
6.286999999999807,-458,2762,7742,79,545,248,-105,-1,139
6.298999999999978,-1632,2718,8154,-875,699,756,-108,0,148
6.320999999999913,-1226,2634,7826,-358,280,626,-111,-12,143
6.333000000000084,-402,2976,7080,-242,164,462,-123,-22,153
6.355000000000018,-538,2548,8824,-426,436,363,-115,-21,154
6.366999999999734,-1094,2632,8166,-392,361,394,-115,-21,149
6.389000000000124,-880,2812,7340,-333,539,318,-104,-25,157
6.40099999999984,-512,2750,7896,-455,27,165,-111,-30,148
6.427999999999884,-558,2200,7128,-417,-196,0,-107,-36,149
6.440000000000055,-774,1870,7624,-513,-646,29,-101,-35,155
6.461999999999989,-824,2266,7572,-545,-695,29,-113,-43,155
6.47400000000016,-630,2346,9382,-474,202,117,-108,-45,153
6.496000000000095,-1118,2396,8082,-300,622,135,-122,-41,149
6.507999999999811,-970,2250,7830,-371,169,424,-111,-43,167
6.529999999999745,-862,2336,8280,-422,-516,552,-116,-50,155
6.541999999999916,-174,2362,8788,-266,-207,444,-112,-49,166
6.563999999999851,-570,2150,7300,-155,-354,179,-113,-55,157
6.585999999999785,-586,2164,7140,-291,-1204,176,-116,-65,157
6.597999999999956,-288,2344,9494,-316,-581,136,-115,-56,149
6.619999999999891,-294,1768,8394,-174,-112,16,-124,-62,156
6.632000000000062,-26,1428,5466,-255,311,105,-129,-72,149
6.653999999999996,-14,2308,9312,-416,279,195,-125,-58,153
6.665999999999713,-1030,1868,7848,-322,471,178,-127,-69,156
6.688000000000102,-298,1658,6836,-405,593,55,-124,-82,151
6.710000000000036,-406,1904,9446,-530,-244,212,-108,-83,162
6.721999999999753,-672,1356,8198,-463,156,294,-119,-84,158
6.744000000000142,-454,1372,8686,-462,375,461,-125,-88,155
6.755999999999858,-510,1214,8066,-555,423,701,-115,-84,154
6.777999999999793,-190,980,7518,-766,-736,719,-119,-92,156
6.789999999999964,-186,1186,7724,-977,-1647,690,-123,-96,162
6.811999999999898,504,1744,9380,-849,-434,461,-119,-94,161
6.833999999999833,448,1746,10240,-589,-572,403,-133,-96,143
6.846000000000004,728,1350,10758,-275,6,312,-124,-115,154
6.867999999999938,1070,1186,9366,308,1720,-33,-131,-125,147
6.880000000000109,-528,1030,7700,259,884,-162,-121,-108,150
6.902000000000044,-128,470,6892,-60,458,-149,-123,-113,150
6.91399999999976,-332,164,6762,-368,-273,-44,-112,-120,161
6.936000000000149,-146,1314,7862,-538,-301,-90,-115,-102,158
6.947999999999865,90,766,9068,-393,-287,-192,-121,-116,167
6.9699999999998,44,1192,9234,-235,-266,-169,-121,-118,157
6.991999999999734,-314,1338,9262,-8,668,-338,-123,-116,162
7.003999999999905,-280,502,8770,-33,1124,-333,-118,-113,155
7.02599999999984,-794,-234,7252,-197,287,-104,-115,-120,158
7.038000000000011,-586,554,8070,-388,405,96,-111,-108,157
7.059999999999945,-602,902,9180,-620,130,259,-119,-107,158
7.072000000000116,-412,1158,8548,-355,143,156,-110,-120,156
7.094000000000051,-192,1232,9112,-35,-475,18,-110,-120,173
7.1159999999999854,-128,440,8850,101,-575,-136,-112,-125,170
7.128000000000156,-376,188,7548,32,-468,-232,-113,-126,157
7.150000000000091,-384,10,7946,-270,-732,-68,-122,-127,154
7.161999999999807,-260,562,9254,-316,-606,37,-123,-113,155
7.183999999999742,-162,660,8384,-199,-613,230,-121,-129,169
7.195999999999913,376,566,8834,-107,-447,95,-128,-131,157
7.217999999999847,382,652,8324,21,-377,-130,-134,-127,147
7.230290999999852,-272,172,7288,-194,-957,32,-135,-126,155
7.251999999999953,318,516,8646,-276,-878,137,-131,-130,163
7.273999999999887,656,720,8402,-190,-764,199,-134,-125,161
7.286000000000058,782,564,8054,-188,-763,-128,-134,-135,151
7.307999999999993,794,514,7268,-336,-1855,-64,-135,-129,148
7.319999999999709,1980,882,8556,-396,51,-375,-140,-134,141
7.342000000000098,468,436,8754,-317,26,-303,-138,-129,133
7.3539999999998145,776,-374,7344,-313,-154,-265,-147,-134,133
7.375999999999749,950,142,8802,-359,43,34,-148,-132,142
7.398000000000138,914,402,8486,-192,150,51,-145,-134,131
7.4099999999998545,778,458,8232,-177,226,-30,-142,-124,145
7.431999999999789,894,48,7874,-210,192,-18,-142,-139,136
7.44399999999996,764,-98,8074,-352,242,85,-148,-132,139
7.4659999999998945,618,162,8140,-473,394,182,-142,-144,138
7.4780000000000655,930,148,6746,-817,292,90,-140,-141,129
7.5,828,-932,7018,-1631,105,-27,-136,-130,149
7.5219999999999345,1046,-48,10690,-371,1112,-306,-144,-145,132
7.5340000000001055,124,-510,8302,-116,640,-63,-138,-154,131
7.55600000000004,90,-572,8684,-8,322,61,-140,-156,141
7.567999999999756,422,-578,7796,148,1,98,-135,-154,131
7.5900000000001455,1152,-2500,7850,944,1405,165,-139,-153,137
7.601999999999862,640,756,8982,60,-228,-110,-136,-155,137
7.623999999999796,214,-498,8360,-167,452,-140,-134,-143,139
7.635999999999967,242,-440,8364,12,-108,-90,-135,-141,145
7.657999999999902,430,-438,8266,-33,92,-153,-140,-146,145
7.679999999999836,-22,-840,8354,-6,-15,29,-140,-146,136
7.692000000000007,474,-778,8082,-13,10,-146,-125,-154,141
7.713999999999942,452,-382,8370,1,5,-195,-131,-153,142
7.726000000000113,442,112,8330,-7,-19,-239,-140,-141,150
7.748000000000047,280,-476,8536,-27,44,-186,-135,-144,138
7.7599999999997635,238,-530,8064,6,43,-77,-146,-155,147
7.782000000000153,728,-36,8446,-10,-1,-74,-133,-146,155
7.804000000000087,372,-630,8278,-4,-23,-196,-141,-148,139
7.8159999999998035,398,-66,8254,-17,-65,-222,-138,-146,143
7.837999999999738,564,-158,8396,-24,2,-310,-138,-141,141
7.849999999999909,828,-2,8936,10,8,-245,-142,-144,138
7.871999999999844,660,42,9178,22,-116,-242,-136,-140,142
7.8840000000000146,358,-618,8342,-27,3,-203,-142,-141,143
7.905999999999949,622,162,8820,-2,-39,-190,-131,-135,142
7.927999999999884,424,-72,8398,3,-56,-103,-142,-141,136
7.940000000000055,398,-164,8336,-17,-16,-102,-134,-143,144
7.961999999999989,310,-392,8274,-23,3,-71,-146,-160,139
7.97400000000016,466,-342,8330,-19,-14,-50,-138,-139,136
7.996000000000095,310,-322,8274,-10,2,-46,-140,-141,133
8.00799999999981,438,-316,8294,-20,0,-64,-133,-136,138
8.029999999999745,400,-278,8314,-10,-13,-56,-144,-140,137
8.041999999999916,328,-284,8372,-3,16,-81,-133,-146,141
8.06399999999985,490,-58,8394,4,-79,-76,-139,-145,137
8.085999999999785,364,-208,8384,-39,65,-64,-148,-132,144
8.097999999999956,328,-372,8314,-15,-13,-35,-128,-141,141
8.11999999999989,332,-424,8376,-10,-3,-31,-141,-145,144
8.132000000000062,336,-370,8334,-16,-7,-12,-141,-140,142
8.153999999999996,498,-232,8384,-9,-5,-41,-141,-143,139
8.165999999999713,440,-336,8364,-19,-3,-55,-150,-134,133
8.188000000000102,474,-140,8432,-10,-7,-86,-145,-136,136
8.210000000000036,374,-280,8274,-14,4,-79,-127,-148,142
8.221999999999753,340,-426,8332,-12,-8,-77,-139,-145,149
8.244000000000142,484,-124,8550,25,-58,-93,-134,-140,142
8.255999999999858,450,-196,8352,11,-82,-41,-139,-140,137
8.277999999999793,572,-188,8318,-64,157,-63,-147,-136,145
8.289999999999964,372,-410,8350,-18,4,-49,-139,-137,149
8.311999999999898,398,-400,8354,15,-84,-38,-141,-140,139
8.333999999999833,402,-282,8392,-2,-42,-39,-142,-126,145
8.346000000000004,486,-310,8378,-12,6,-43,-131,-140,144
8.367999999999938,398,-314,8322,-14,0,-36,-134,-135,139
8.38000000000011,350,-416,8330,-27,19,-35,-147,-136,143
8.402000000000044,512,-228,8366,0,-34,-49,-140,-136,136
8.418998000000101,436,-332,8360,-6,-12,-70,-138,-136,145
8.43100000000004,470,-132,8330,-43,71,-87,-144,-140,137
8.452999999999975,334,-374,8398,-42,80,-90,-139,-127,139
8.474999999999909,690,4,8328,-22,3,-76,-139,-132,142
8.48700000000008,316,-270,8332,-15,-5,-39,-141,-135,147
8.509000000000015,398,-284,8374,-9,-4,-17,-141,-125,139
8.52099999999973,416,-268,8382,-2,-40,-25,-136,-137,137
8.54300000000012,476,-242,8450,8,-72,-27,-136,-140,144
8.554999999999836,460,-314,8362,-24,29,-43,-139,-140,142
8.57699999999977,414,-310,8380,-5,-19,-51,-138,-139,131
8.588999999999942,428,-354,8408,-21,13,-43,-138,-134,141
8.610999999999876,450,-320,8358,-10,-20,-36,-141,-127,135
8.63299999999981,400,-226,8396,-16,9,-45,-144,-145,142
8.644999999999982,438,-184,8402,1,-52,-47,-127,-135,139
8.666999999999916,418,-234,8398,-8,-33,-30,-140,-131,145
8.679000000000087,454,-294,8366,-18,30,-30,-146,-132,132
8.701000000000022,378,-428,8348,-17,24,-16,-145,-131,133
8.712999999999738,494,-204,8396,-2,-46,-41,-141,-137,135
8.735000000000127,458,-228,8394,-20,27,-38,-140,-139,141
8.757000000000062,438,-306,8374,-8,-16,-24,-147,-136,141
8.768999999999778,412,-318,8358,1,-38,-17,-144,-140,139
8.790999999999713,474,-394,8424,-11,-15,-30,-144,-137,142
8.802999999999884,324,-228,8394,-6,-42,-55,-138,-136,143
8.824999999999818,532,-206,8362,-11,3,-60,-141,-130,147
8.836999999999989,446,-364,8422,-11,-7,-57,-136,-125,149
8.858999999999924,532,-240,8358,-41,104,-60,-135,-129,138
8.880999999999858,474,-360,8406,-22,32,-35,-142,-139,136
8.893000000000029,378,-182,8372,2,-48,-26,-142,-131,138
8.914999999999964,524,-172,8432,-22,23,-19,-140,-141,136
8.927000000000135,432,-316,8414,-23,38,-19,-140,-136,145
8.94900000000007,468,-206,8408,-6,-18,-24,-140,-124,138
8.960999999999785,458,-284,8378,-16,6,-23,-144,-135,137
8.98299999999972,412,-256,8372,-21,18,-11,-141,-137,147
8.99499999999989,422,-284,8380,-11,-4,-9,-142,-126,138
9.016999999999825,450,-292,8436,-15,-7,-10,-133,-144,136
9.03899999999976,458,-268,8376,-15,2,-11,-144,-130,135
9.05099999999993,428,-258,8420,-10,-15,-17,-148,-127,132
9.072999999999865,464,-262,8384,-16,0,-10,-141,-135,135
9.085000000000036,452,-278,8420,-9,-7,-16,-148,-140,132
9.106999999999971,406,-256,8392,-13,-6,-9,-147,-139,136
9.119000000000142,452,-220,8366,-13,11,-7,-141,-137,144
9.141000000000076,484,-272,8350,-15,-5,-12,-142,-141,157
9.163000000000011,502,-270,8418,-7,-3,-6,-141,-135,139
9.174999999999727,464,-278,8344,-9,-3,-10,-140,-129,129
9.197000000000116,458,-264,8354,-12,0,-5,-145,-136,145
9.208999999999833,484,-294,8352,-13,-4,-6,-133,-136,129
9.230999999999767,474,-280,8426,-12,-3,-6,-140,-134,148
9.242999999999938,440,-272,8398,-11,-2,-13,-142,-139,133
9.264999999999873,464,-222,8362,-9,1,-3,-146,-127,135
9.286999999999807,432,-312,8396,-16,1,-5,-134,-135,132
9.298999999999978,464,-290,8412,-15,-6,-10,-145,-134,133
9.320999999999913,456,-314,8352,-17,3,-11,-142,-131,148
9.333000000000084,420,-234,8388,-7,-6,-16,-144,-137,137
9.355000000000018,458,-288,8384,-12,-9,-11,-131,-135,132
9.366999999999734,412,-268,8398,-12,-7,-11,-147,-141,145
9.389000000000124,458,-330,8364,-13,1,-12,-135,-126,145
9.40099999999984,452,-266,8360,-14,2,-11,-144,-135,144
9.422999999999774,500,-270,8388,-11,-4,-9,-138,-131,148
9.444999999999709,472,-256,8386,-10,-3,-9,-148,-135,139
9.45699999999988,402,-270,8366,-14,0,-7,-145,-146,136
9.478999999999814,456,-238,8364,-14,-2,-11,-144,-140,142
9.490999999999985,410,-300,8396,-14,-4,-10,-142,-129,133
9.51299999999992,378,-296,8370,-8,1,-14,-148,-130,139
9.525000000000091,454,-262,8386,-16,-3,-4,-142,-136,141
9.547000000000025,418,-292,8382,-11,-6,-5,-155,-134,145
9.56899999999996,422,-260,8388,-14,2,-7,-151,-132,142
9.581000000000131,478,-240,8372,-9,0,-4,-145,-129,121
9.603000000000065,434,-292,8382,-12,-9,-11,-141,-140,139
9.614999999999782,422,-294,8376,-13,0,-11,-134,-137,139
9.636999999999716,544,-262,8374,-16,-1,-9,-140,-131,143
9.648999999999887,400,-278,8412,-12,-2,-10,-141,-137,147
9.670999999999822,476,-298,8352,-13,-6,-8,-145,-126,136
9.682999999999993,434,-258,8380,-14,-4,-10,-141,-132,135
9.704999999999927,510,-306,8386,-12,-2,-10,-138,-136,148
9.726999999999862,468,-264,8404,-15,-4,-8,-138,-141,141
9.739000000000033,482,-270,8414,-13,3,-4,-140,-141,138
9.760999999999967,408,-290,8420,-8,-7,-11,-146,-135,142
9.773000000000138,404,-296,8408,-13,0,-8,-139,-130,147
9.795000000000073,466,-252,8384,-6,-1,-8,-144,-130,139
9.806999999999789,470,-294,8406,-17,-1,-9,-139,-137,139
9.828999999999724,394,-250,8384,-12,-5,-8,-140,-136,145
9.851000000000113,458,-280,8354,-10,-1,-11,-138,-131,138
9.862999999999829,458,-242,8376,-12,0,-9,-134,-143,137
9.884999999999764,444,-268,8380,-10,-1,-11,-140,-129,133
9.896999999999935,454,-294,8370,-14,-1,-8,-145,-139,141
9.918999999999869,408,-270,8380,-10,-6,-5,-141,-140,135
9.93100000000004,436,-266,8376,-8,1,-10,-136,-127,132
9.952999999999975,446,-286,8336,-16,-5,-7,-135,-139,141
9.974999999999909,404,-304,8346,-9,-6,-10,-151,-132,142
9.98700000000008,448,-278,8364,-12,-3,-7,-138,-134,133
10.009000000000015,410,-300,8400,-14,0,-7,-139,-132,139
10.02099999999973,476,-306,8384,-11,-7,-11,-138,-136,136
10.04300000000012,488,-288,8390,-13,-3,-11,-141,-132,144
10.054999999999836,458,-292,8410,-12,-8,-11,-131,-132,142
10.07699999999977,430,-320,8364,-16,-6,-9,-139,-137,139
10.088999999999942,496,-326,8392,-12,-7,-4,-141,-140,149
10.110999999999876,490,-312,8382,-15,-7,-10,-147,-134,148
10.13299999999981,436,-254,8396,-12,3,-8,-145,-126,150
10.144999999999982,476,-282,8370,-10,-3,-7,-141,-132,132
10.166999999999916,490,-244,8324,-15,-2,-11,-141,-132,135
10.179000000000087,496,-284,8374,-15,-8,-6,-140,-139,126
10.201000000000022,382,-274,8376,-17,-3,-7,-139,-130,151
10.212999999999738,444,-308,8382,-12,-6,-11,-146,-125,135
10.235000000000127,422,-260,8392,-17,-9,-3,-136,-120,144
10.257000000000062,448,-286,8362,-7,-4,-7,-147,-131,138
10.268999999999778,408,-290,8374,-16,-5,-4,-147,-136,136
10.290999999999713,456,-278,8368,37,-152,-12,-131,-135,132
10.302999999999884,518,-268,8364,-14,14,-9,-146,-132,142
10.324999999999818,486,-280,8418,-25,38,-10,-141,-143,139
10.336999999999989,358,-250,8382,-18,34,-6,-145,-126,136
10.358999999999924,488,-310,8406,-17,16,-9,-150,-131,141
10.380999999999858,414,-238,8386,-18,33,-4,-150,-134,138
10.393000000000029,424,-242,8368,-28,42,-11,-144,-137,139
10.41999799999985,472,-294,8388,-11,-2,-6,-139,-132,139
10.431999999999789,458,-306,8392,-8,-5,-6,-146,-130,149
10.44399999999996,412,-236,8344,-5,-13,-14,-134,-137,142
10.465999999999894,422,-276,8374,-22,28,-8,-148,-135,139
10.478000000000065,404,-258,8358,-11,-12,-7,-136,-143,142
10.5,470,-306,8416,-14,-5,-8,-147,-136,138
10.521999999999935,454,-254,8390,-3,-31,-11,-142,-131,133
10.534000000000106,410,-278,8316,-9,-2,-4,-139,-122,139
10.55600000000004,480,-324,8332,-8,-1,-12,-130,-131,131
10.567999999999756,480,-308,8404,-12,2,-8,-146,-130,132
10.590000000000146,480,-236,8386,-16,7,-6,-145,-141,143
10.601999999999862,538,-268,8430,-7,-1,-8,-131,-143,151
10.623999999999796,440,-282,8404,-12,7,-6,-140,-139,145
10.635999999999967,704,-310,8392,-13,2,28,-141,-137,142
10.657999999999902,340,12,8386,13,0,-132,-146,-137,137
10.679999999999836,374,-268,8414,-25,4,-161,-151,-127,137
10.692000000000007,408,-262,8482,-17,4,-229,-138,-136,138
10.713999999999942,264,-270,8478,-21,2,-303,-135,-129,145
10.726000000000113,468,-378,8338,-54,-27,-245,-145,-131,141
10.748000000000047,524,-292,8350,-27,-243,-234,-153,-132,144
10.759999999999764,652,-68,8350,8,-364,-254,-148,-127,137
10.782000000000153,688,-116,8356,-19,-309,-289,-146,-130,147
10.804000000000087,662,-444,8406,-62,-131,-235,-140,-129,141
10.815999999999804,416,-588,8372,-82,-85,-59,-148,-127,137
10.837999999999738,318,-122,8418,-66,-155,29,-145,-139,131
10.849999999999909,758,-456,8318,-49,-170,37,-146,-127,132
10.871999999999844,688,-440,8356,-7,-261,54,-158,-125,139
10.884000000000015,612,-408,8260,48,-387,127,-148,-132,139
10.905999999999949,888,-676,8368,6,-290,168,-145,-131,136
10.927999999999884,458,-206,8382,-52,-132,226,-155,-134,133
10.940000000000055,668,-214,8340,-154,54,120,-150,-134,121
10.961999999999989,968,18,8368,-276,20,-163,-147,-136,131
10.97400000000016,822,-166,8372,-293,-203,-495,-146,-140,125
10.996000000000095,872,-626,8346,-154,-534,-402,-148,-127,132
11.00799999999981,628,-536,8364,-505,-36,-499,-161,-140,125
11.029999999999745,1558,-778,9378,-777,507,-623,-165,-137,130
11.041999999999916,1410,-744,9234,-327,643,-742,-155,-131,129
11.06399999999985,338,-1098,8784,-13,489,-572,-152,-134,129
11.085999999999785,828,-606,10006,100,618,-100,-159,-126,129
11.097999999999956,938,-1058,8172,245,705,-48,-157,-118,136
11.11999999999989,1490,-668,8582,132,402,-295,-148,-122,137
11.132000000000062,1292,-374,9674,150,450,-669,-146,-135,139
11.153999999999996,478,-950,8246,349,409,-726,-145,-108,138
11.165999999999713,452,-1186,8136,232,-302,-519,-133,-116,143
11.188000000000102,1408,-670,9814,146,-153,-467,-136,-120,144
11.210000000000036,804,-1120,8146,323,402,-600,-146,-120,132
11.221999999999753,1088,-748,8808,268,320,-615,-151,-105,142
11.244000000000142,300,-600,7890,219,-91,-617,-144,-99,135
11.255999999999858,1192,-318,8700,270,120,-891,-141,-99,132
11.277999999999793,1300,-1116,7392,235,-325,-1195,-159,-93,136
11.289999999999964,576,-862,8146,40,-1202,-1109,-147,-83,136
11.311999999999898,1196,-8,10162,111,400,-1162,-156,-82,137
11.324285000000145,712,-656,8282,290,1021,-1293,-155,-88,133
11.346000000000004,-128,-564,7814,319,833,-1030,-153,-77,125
11.367999999999938,-188,42,8434,235,910,-884,-150,-65,133
11.38000000000011,150,576,8132,275,1258,-1070,-151,-69,144
11.402000000000044,88,-440,6882,99,358,-1222,-136,-67,135
11.41399999999976,56,-368,8158,-73,47,-1146,-133,-60,126
11.43600000000015,-88,-90,8860,-5,1023,-1008,-135,-43,138
11.447999999999865,-772,50,8002,166,986,-816,-129,-49,137
11.4699999999998,-652,90,6980,38,-18,-637,-119,-41,147
11.491999999999734,-528,252,7616,-89,-1020,-764,-129,-39,142
11.503999999999905,-270,374,9892,-16,-417,-760,-124,-24,123
11.52599999999984,374,342,8764,152,-76,-689,-125,-27,133
11.538000000000011,486,284,9580,199,293,-868,-122,-29,135
11.559999999999945,42,340,9098,371,851,-815,-130,-17,136
11.572000000000116,-604,252,8312,488,737,-1072,-118,-20,129
11.594000000000051,-972,178,7386,354,-121,-927,-119,-6,139
11.615999999999985,-190,152,7830,295,-1079,-714,-117,6,130
11.628000000000156,36,450,8408,225,-1745,-591,-105,6,123
11.650000000000091,324,632,9528,280,-1055,-665,-122,16,123
11.661999999999807,326,792,9196,469,216,-857,-128,10,121
11.683999999999742,250,732,8258,557,648,-937,-128,20,121
11.695999999999913,-254,408,7398,496,272,-826,-123,27,126
11.717999999999847,128,476,7348,393,223,-908,-111,45,117
11.730000000000018,-742,578,7192,261,-294,-830,-116,50,119
11.751999999999953,-290,782,7998,105,-417,-618,-118,55,114
11.773999999999887,-610,1350,9532,222,269,-642,-119,59,118
11.786000000000058,-450,1068,8794,420,1201,-762,-116,70,114
11.807999999999993,-18,980,7934,465,1459,-837,-116,68,121
11.819999999999709,-478,728,7606,436,924,-1057,-119,79,120
11.842000000000098,-1022,576,6446,325,-524,-904,-115,84,118
11.853999999999814,-1682,104,5874,42,-2135,-475,-105,97,118
11.875999999999749,-818,1746,8824,-199,-2597,-7,-117,115,118
11.898000000000138,760,1708,10164,161,-617,-431,-125,116,114
11.909999999999854,1364,1666,9164,418,685,-1107,-134,112,106
11.931999999999789,-804,888,7282,402,804,-1479,-127,115,113
11.94399999999996,-1006,480,6454,310,427,-1310,-130,126,107
11.965999999999894,-1006,602,7128,84,-121,-972,-133,129,109
11.978285000000142,-636,874,7014,18,-776,-557,-130,151,112
12.0,490,660,7460,-82,-397,-630,-130,141,114
12.021999999999935,354,1180,8588,-59,690,-1077,-125,144,114
12.034000000000106,-1012,1288,7772,50,1525,-1225,-133,151,117
12.05600000000004,-970,1300,7816,33,1644,-1154,-124,158,125
12.067999999999756,-1614,1362,7150,-32,1108,-1006,-107,165,125
12.090000000000146,-2112,996,6122,-183,-236,-685,-99,172,129
12.101999999999862,-1484,846,6696,-430,-1313,-278,-105,165,137
12.123999999999796,-850,1344,7716,-562,-1629,-238,-107,173,127
12.135999999999967,-754,1666,9536,-422,-547,-596,-105,165,137
12.157999999999902,-772,1582,9242,-126,231,-823,-107,163,130
12.179999999999836,-356,1272,9250,41,582,-990,-115,150,144
12.192000000000007,-1376,998,8090,60,521,-945,-102,158,137
12.213999999999942,-890,720,7848,-16,-271,-761,-92,144,141
12.226000000000113,-1014,842,8392,-58,-559,-718,-84,151,150
12.248000000000047,-1098,1190,9060,-32,-646,-570,-83,148,154
12.259999999999764,-710,1162,9356,113,-591,-675,-78,145,149
12.282000000000153,-2436,364,7344,310,100,-927,-66,143,156
12.304000000000087,-1086,668,8572,-212,-49,-379,-73,148,163
12.315999999999804,298,852,8358,184,-229,-316,-78,135,170
12.337999999999738,-110,780,8182,62,-345,-758,-59,132,170
12.349999999999909,-1362,858,7706,-55,-335,-548,-53,126,167
12.371999999999844,-12,954,8610,-87,-556,-491,-62,126,174
12.384000000000015,-544,1232,9244,62,103,-851,-48,108,181
12.405999999999949,-1614,840,8204,134,-51,-709,-55,116,179
12.422998000000007,-1194,970,8460,81,-190,-451,-39,97,180
12.444999999999709,-1458,810,7294,15,-264,-361,-41,98,181
12.45699999999988,-198,844,7686,-9,-755,-344,-39,97,185
12.478999999999814,-268,722,8598,-82,-920,-497,-35,97,185
12.490999999999985,-518,712,8902,-27,-354,-488,-31,88,181
12.51299999999992,-732,1146,8750,22,137,-487,-41,91,184
12.525000000000091,-532,606,8910,120,624,-548,-32,82,175
12.547000000000025,-1014,840,8436,251,797,-575,-32,77,180
12.559284999999818,-1084,894,6610,152,567,-588,-14,81,167
12.581000000000131,-800,370,7406,-22,-105,-306,-6,79,180
12.603000000000065,134,432,7926,-114,-451,-307,-15,82,180
12.614999999999782,-346,1220,10028,-8,-393,-479,-8,77,175
12.636999999999716,-690,970,9172,198,180,-489,-16,70,162
12.648999999999887,-970,776,8492,300,581,-462,-8,74,161
12.670999999999822,-1170,1094,9128,278,824,-398,0,70,162
12.682999999999993,-906,1000,9278,365,1138,-342,-4,65,155
12.704999999999927,-220,1056,8902,415,1175,-377,-3,69,154
12.726999999999862,-1750,942,7810,446,1373,-520,8,82,154
12.739000000000033,-2236,1094,6330,192,160,-294,14,78,157
12.760999999999967,-1266,1008,7302,33,-289,-130,12,78,157
12.773000000000138,-1030,1102,6812,-68,-736,-215,7,73,155
12.795000000000073,-1482,566,6948,-249,-810,-156,16,75,153
12.806999999999789,-922,724,7346,-431,-1218,55,15,72,156
12.828999999999724,-788,1090,8486,-497,-1383,36,6,74,149
12.851000000000113,-482,1104,8762,-377,-1033,-195,-7,63,160
12.862999999999829,-564,876,9202,-302,-664,-444,0,73,153
12.884999999999764,-844,532,8214,-200,-168,-301,-13,69,151
12.896999999999935,-1188,782,8054,-85,118,-227,-10,64,144
12.918999999999869,-1386,464,7038,-145,-24,28,-4,65,148
12.93100000000004,-348,482,7544,-319,-228,-30,-10,67,149
12.952999999999975,-380,480,7858,-376,-577,-126,-9,68,153
12.965000000000146,-464,540,8030,-331,-562,-177,-6,64,142
12.98700000000008,-354,704,8686,-340,-512,-237,-16,60,141
13.009000000000015,-648,544,8824,-311,-40,-366,-4,65,148
13.02099999999973,52,716,8204,-105,0,-263,-21,68,145
13.04300000000012,-412,762,8960,-168,126,-422,-18,59,144
13.054999999999836,288,708,8640,-105,39,-383,-13,59,142
13.07699999999977,-510,680,8642,-73,-31,-463,-9,60,145
13.088999999999942,-208,846,8968,-47,-74,-419,-16,65,141
13.110999999999876,-246,172,8738,50,214,-352,-19,53,131
13.13299999999981,-848,538,8716,17,169,-354,-14,58,148
13.144999999999982,-358,368,7940,5,227,-196,-6,67,135
13.166999999999916,64,748,9206,-111,80,-361,-7,50,141
13.179000000000087,-1212,748,8616,28,551,-486,-16,58,141
13.201000000000022,-512,470,8374,-46,142,-332,1,67,139
13.212999999999738,-1124,206,7692,-59,15,-96,0,70,145
13.235000000000127,-400,358,7952,-178,-319,42,-7,63,148
13.257000000000062,-200,626,8656,-162,-362,-31,2,73,143
13.268999999999778,-240,514,7914,-137,-397,-45,-10,64,142
13.290999999999713,-112,622,8870,-141,-185,-166,4,58,145
13.302999999999884,-102,442,8598,-78,8,-206,-8,59,154
13.324999999999818,-374,352,8062,-82,141,-196,-6,67,147
13.336999999999989,-464,218,7710,-138,-38,-52,-4,60,143
13.358999999999924,-158,284,8074,-146,-89,-75,-2,63,153
13.371000000000095,-252,242,8278,-107,27,-165,-3,67,151
13.393000000000029,-198,270,7810,-145,-134,-151,-8,67,149
13.414999999999964,-392,524,7940,-216,-257,-174,-8,64,147
13.427000000000135,-372,262,8532,-153,357,-229,-7,68,153
13.44900000000007,-764,396,8440,-165,280,-211,-9,68,148
13.460999999999785,-588,350,8750,-142,282,-166,-7,63,153
13.48299999999972,-832,308,8580,58,180,-241,-2,68,145
13.49499999999989,244,190,8762,-1118,-1009,-369,-4,55,157
13.516999999999825,-822,-192,10552,-374,-1322,-335,2,48,155
13.53899999999976,-642,-394,8766,-29,-406,-72,7,53,150
13.55099999999993,552,60,8932,102,-232,-159,-9,60,153
13.572999999999865,212,-190,8212,107,325,-247,-4,60,155
13.585000000000036,-156,-44,7702,-85,-126,-162,-14,53,157
13.606999999999971,-382,-42,7404,-246,-477,-151,-9,55,160
13.619000000000142,-558,-60,7926,-435,-716,-78,-2,58,160
13.641000000000076,150,-204,8662,-537,-732,-30,-20,56,154
13.663000000000011,270,-188,8698,-428,-288,-6,-9,50,162
13.674999999999727,82,-272,8356,-424,-220,66,-9,58,157
13.697000000000116,710,-380,8234,-393,-184,45,-13,51,154
13.708999999999833,534,-410,8552,-333,-337,6,-18,54,166
13.730999999999767,546,-466,8352,-53,235,-10,-21,55,162
13.742999999999938,410,-264,8320,-34,212,-23,-14,43,160
13.764999999999873,196,-530,8352,-69,335,-45,-21,40,157
13.777000000000044,186,-486,8314,-127,487,-55,-15,46,158
13.798999999999978,18,-594,8356,-85,447,-52,-12,48,157
13.820999999999913,-42,-596,8446,-99,476,-11,-19,55,153
13.833000000000084,220,-522,7372,77,69,17,-16,43,164
13.855000000000018,-122,-472,8288,71,-9,73,-2,40,174
13.866999999999734,458,162,8724,174,-93,177,-3,46,163
13.889000000000124,-258,-476,8270,171,-6,66,-9,48,160
13.90099999999984,258,-214,8394,51,-1,-16,-16,45,172
13.922999999999774,120,-380,8360,36,2,-30,-8,41,163
13.944999999999709,62,-342,8360,26,-2,-48,-4,43,162
13.95699999999988,92,-290,8390,29,-2,-76,-3,49,161
13.978999999999814,80,-354,8330,39,1,-67,-7,50,162
13.990999999999985,44,-284,8370,9,-3,-18,-3,39,168
14.01299999999992,68,-320,8358,0,-9,-20,-10,54,158
14.025000000000091,62,-346,8374,-1,-10,-23,-2,50,157
14.047000000000025,206,-324,8380,12,-7,-45,-2,48,157
14.058999999999742,68,-438,8382,0,0,-146,-7,48,153
14.081000000000131,-184,-318,8230,9,12,-243,0,58,157
14.103000000000065,-382,-600,8330,24,8,-202,-7,45,155
14.114999999999782,-362,-368,8332,29,2,-96,-13,44,166
14.136999999999716,70,-248,8352,8,2,0,0,53,162
14.148999999999887,-16,-286,8372,-25,1,3,1,46,166
14.170999999999822,66,-206,8362,-30,-2,-29,-9,45,162
14.182999999999993,66,-330,8328,-34,0,-31,-8,49,154
14.204999999999927,48,-300,8356,-15,-4,-22,-9,60,172
14.226999999999862,60,-306,8342,-13,-10,-18,-10,59,163
14.239000000000033,-30,-350,8346,-22,-6,-17,-10,54,161
14.260999999999967,16,-246,8352,-8,4,-6,-2,53,157
14.273000000000138,-2,-346,8364,-26,1,-12,-8,46,163
14.295000000000073,216,-368,8386,-12,-8,-6,-2,50,160
14.306999999999789,86,-362,8350,-17,-9,8,-2,53,150
14.328999999999724,268,-188,8398,0,10,15,-10,46,156
14.351000000000113,34,-260,8384,-22,0,-6,-3,46,154
14.362999999999829,88,-270,8382,-18,-10,-1,-8,41,166
14.384999999999764,12,-160,8572,-3,-10,-6,1,51,170
14.396999999999935,78,-252,8354,3,5,9,-10,46,161
14.423997999999756,66,-246,8396,-8,-7,1,-12,53,160
14.43600000000015,148,-278,8340,-1,-5,2,-13,39,163
14.447999999999865,86,-140,8412,-15,8,19,-13,49,158
14.4699999999998,-138,-368,8430,-14,-16,81,-8,49,154
14.491999999999734,340,-280,8372,-16,-21,79,1,49,175
14.503999999999905,180,-376,8330,-22,-9,43,-9,50,160
14.52599999999984,90,-278,8312,-20,-9,16,-21,45,162
14.538000000000011,60,-316,8344,-23,-1,-13,4,48,172
14.559999999999945,10,-166,8344,-28,-2,-14,-3,49,168
14.572000000000116,10,-304,8324,-15,-6,-8,-7,48,160
14.594000000000051,-120,-196,8774,-89,-14,-44,-1,49,154
14.615999999999985,42,-330,8312,-43,-5,-29,-3,49,161
14.628000000000156,24,-242,8368,-36,-7,-101,1,59,158
14.650000000000091,-52,-240,8444,-56,-9,-132,-10,59,156
14.661999999999807,162,-418,8408,-26,3,-74,-9,48,162
14.683999999999742,16,-460,8406,-8,4,3,-2,45,162
14.695999999999913,56,-272,8396,-7,0,9,-9,55,162
14.717999999999847,76,-428,8358,-9,-1,7,-7,50,160
14.730000000000018,38,-332,8336,-12,4,-7,4,40,157
14.751999999999953,58,-376,8368,-15,1,-13,-9,50,164
14.773999999999887,48,-362,8354,-10,-5,-11,2,50,164
14.786000000000058,68,-326,8378,-14,-3,-8,-8,41,163
14.807999999999993,44,-312,8394,-7,-2,-10,-3,49,161
14.819999999999709,104,-354,8372,-10,1,-11,-7,48,160
14.842000000000098,64,-328,8328,-17,0,-9,-1,46,170
14.853999999999814,84,-296,8396,-22,-2,-20,-1,41,154
14.875999999999749,186,-558,8450,14,3,-19,-6,46,161
14.898000000000138,38,-374,8356,1,3,-35,-7,48,169
14.909999999999854,54,-318,8378,-11,-3,-55,-4,50,155
14.931999999999789,-86,-138,8270,-49,24,-205,-13,41,161
14.94399999999996,2,-230,8522,-40,-15,-209,-6,44,168
14.965999999999894,86,-618,8484,-41,-3,-131,-3,56,166
14.978000000000065,158,-302,8388,-35,-3,-110,-8,46,156
15.0,12,-422,8334,-77,0,-98,-6,51,170
15.012291000000005,84,-384,8406,-13,-3,-17,-3,51,163
15.034000000000106,-204,-604,8352,6,12,47,-13,56,170
15.05600000000004,272,-352,8608,-1,-8,13,-2,45,162
15.067999999999756,-2,-390,8348,-15,-5,-17,-7,53,160
15.090000000000146,78,-402,8408,-11,-6,-13,-2,43,162
15.101999999999862,64,-398,8392,-7,-2,-11,1,41,166
15.123999999999796,34,-378,8346,-16,-2,-14,0,48,162
15.135999999999967,46,-304,8378,-10,-4,-11,3,44,163
15.157999999999902,72,-354,8376,-11,-4,-11,-7,40,167
15.179999999999836,82,-378,8342,-14,2,-15,-12,43,162
15.192000000000007,62,-388,8388,-7,-2,-7,-2,43,167
15.213999999999942,82,-392,8350,-12,-2,-15,-6,46,170
15.226000000000113,34,-374,8370,-16,1,-20,-6,41,156
15.248000000000047,66,-348,8370,-15,-1,-21,6,49,158
15.259999999999764,50,-434,8334,-18,-7,-14,1,41,161
15.282000000000153,52,-344,8382,-8,-3,-7,-8,51,163
15.304000000000087,58,-398,8380,-8,-3,-8,-9,40,162
15.315999999999804,86,-396,8364,-14,-5,-9,-2,58,164
15.337999999999738,90,-398,8346,-11,1,-13,-6,51,161
15.349999999999909,80,-378,8346,-9,-2,-10,-10,41,151
15.371999999999844,76,-422,8380,-7,-5,-11,1,54,156
15.384000000000015,50,-352,8348,-11,-3,-10,3,44,163
15.405999999999949,28,-356,8346,-10,-2,-13,-7,50,162
15.41800000000012,64,-380,8344,-16,-4,-15,-4,43,172
15.440000000000055,44,-366,8384,-14,0,-14,3,39,161
15.461999999999989,78,-394,8386,-15,-7,-10,-4,43,169
15.47400000000016,34,-346,8396,-14,-1,-7,-3,41,168
15.496000000000095,64,-340,8334,-13,-6,-8,0,40,160
15.50799999999981,68,-356,8364,-13,-1,-12,-6,41,166
15.529999999999745,64,-332,8374,-10,-5,-7,-8,41,163
15.541999999999916,82,-354,8356,-16,3,-12,0,58,162
15.56399999999985,40,-378,8376,-12,-2,-13,-2,45,157
15.585999999999785,92,-400,8400,-12,-8,-8,2,48,164
15.597999999999956,28,-370,8372,-10,-7,-6,0,43,164
15.61999999999989,70,-392,8356,-16,0,-8,0,45,162
15.632000000000062,18,-356,8344,-14,-4,-9,-2,53,167
15.653999999999996,60,-396,8376,-15,-2,-8,-4,55,160
15.665999999999713,10,-356,8366,-15,-4,-11,1,54,163
15.688000000000102,40,-370,8366,-8,-5,-12,-7,45,164
15.710000000000036,46,-408,8358,-17,-1,-12,-7,45,169
15.721999999999753,22,-390,8414,-12,-4,-11,-8,46,158
15.744000000000142,46,-322,8346,-12,-2,-8,4,53,153
15.755999999999858,78,-384,8376,-14,-6,-12,-10,51,161
15.777999999999793,78,-376,8380,-13,-3,-13,-3,46,163
15.789999999999964,52,-396,8386,-14,2,-11,-2,48,167
15.811999999999898,68,-382,8370,-8,-3,-11,0,48,162
15.82400000000007,78,-370,8358,-17,-7,-11,1,54,158
15.846000000000004,70,-390,8346,-11,-4,-10,-4,45,164
15.867999999999938,12,-326,8360,-12,-1,-14,2,40,155
15.88000000000011,82,-346,8368,-9,2,-9,-1,39,158
15.902000000000044,36,-358,8360,-11,-4,-9,-7,45,160
15.91399999999976,-24,-350,8394,-17,-2,-7,6,46,154
15.93600000000015,28,-398,8344,-10,-3,-11,-6,49,161
15.947999999999865,66,-396,8376,-10,2,-8,-9,48,162
15.9699999999998,86,-378,8384,-16,0,-8,-4,58,169
15.991999999999734,132,-356,8378,-8,-5,-8,-1,49,168
16.003999999999905,54,-406,8354,-14,-5,-10,1,49,156
16.02599999999984,52,-384,8316,-9,-2,-5,-13,39,161
16.03800000000001,52,-358,8332,-15,-4,-6,-3,41,154
16.059999999999945,30,-376,8358,-12,1,-10,2,43,164
16.072000000000116,56,-408,8342,-12,-6,-7,-9,50,172
16.09400000000005,32,-372,8400,-14,-1,-6,-3,44,166
16.115999999999985,46,-378,8348,-9,-8,-13,-1,49,158
16.128000000000156,76,-402,8388,-13,-4,-9,-6,41,154
16.15000000000009,78,-378,8340,-10,-3,-7,-6,46,163
16.161999999999807,80,-346,8386,-12,-3,-8,3,41,158
16.18399999999974,64,-358,8358,-9,-3,-11,-3,44,166
16.195999999999913,34,-374,8372,-11,0,-12,-7,50,160
16.217999999999847,66,-368,8390,-9,-2,-7,-14,50,160
16.230000000000018,42,-366,8384,-14,-7,-5,3,34,158
16.251999999999953,56,-384,8388,-12,-6,-11,-10,54,154
16.273999999999887,84,-384,8398,-11,-2,-5,-6,44,151
16.286000000000058,38,-388,8348,-13,-7,-10,-1,39,170
16.307999999999993,82,-354,8364,-10,0,-7,-14,45,162
16.31999999999971,64,-352,8368,-11,1,-13,2,53,164
16.3420000000001,46,-392,8392,-12,-4,-6,-1,54,163
16.353999999999814,44,-348,8342,-6,-4,-6,-2,43,162
16.37599999999975,32,-418,8330,-9,0,-3,1,51,163
16.39800000000014,24,-396,8354,-12,-4,-6,-8,51,161
16.409999999999854,56,-360,8390,-12,-3,-12,-6,44,175
16.426997999999912,62,-370,8352,-14,0,-6,1,44,168
16.44900000000007,78,-358,8322,-13,-6,-7,0,50,167
16.460999999999785,70,-370,8360,-15,-3,-10,0,50,164
16.48299999999972,68,-382,8360,-15,-2,-10,-8,46,163
16.49499999999989,26,-392,8340,-11,-6,-9,2,58,155
16.516999999999825,22,-312,8332,-14,0,-12,-6,41,161
16.53899999999976,52,-392,8360,-13,-3,-7,-10,51,161
16.55099999999993,56,-390,8374,-11,-3,-3,0,40,160
16.572999999999865,50,-416,8390,-11,-3,-9,-8,49,163
16.585000000000036,38,-432,8362,-14,-6,-4,1,49,168
16.60699999999997,46,-372,8352,-10,-4,-8,-8,41,166
16.619000000000142,34,-390,8356,-9,-6,-11,-13,51,166
16.641000000000076,80,-382,8354,-13,-6,-11,-2,55,160
16.66300000000001,68,-392,8400,-12,-4,-9,-13,39,154
16.674999999999727,76,-406,8366,-10,-6,-11,-4,50,162
16.697000000000116,24,-364,8378,-8,-3,-7,1,46,158
16.708999999999833,4,-366,8344,-13,-5,-5,-2,48,157
16.730999999999767,92,-374,8360,-11,-3,-10,-3,54,156
16.742999999999938,64,-416,8360,-11,-4,-8,-7,53,160
16.764999999999873,26,-392,8354,-9,-2,-11,-10,39,163
16.777000000000044,30,-368,8360,-10,-3,-8,-10,46,161
16.798999999999978,42,-430,8380,-12,-1,-11,-6,54,156
16.820999999999913,68,-372,8338,-12,-2,-6,-3,49,163
16.833000000000084,74,-366,8364,-13,-2,-5,-4,55,164
16.855000000000018,68,-400,8372,-12,-3,-7,-7,43,164
16.866999999999734,30,-404,8378,-12,-6,-8,1,62,158
16.889000000000124,52,-378,8374,-7,-5,-8,-6,44,161
16.90099999999984,46,-332,8326,-11,-1,-6,-9,45,160
16.922999999999774,6,-326,8360,-3,-7,-11,0,53,169
16.94499999999971,96,-360,8362,-12,1,-7,-4,43,160
16.95699999999988,36,-394,8360,-14,-3,-8,-1,39,168
16.978999999999814,88,-374,8358,-9,-3,-4,-7,50,155
16.990999999999985,-354,-1792,7970,247,-43,119,-2,50,167
17.01299999999992,-224,-132,8366,317,15,27,-1,46,161
17.02500000000009,-74,-316,8046,399,23,-52,-4,55,157
17.047000000000025,316,-76,8332,384,11,-6,-4,50,167
17.059284999999818,338,416,8390,20,-7,49,1,54,163
17.08100000000013,60,-88,8410,18,0,-23,-3,56,151
17.103000000000065,66,-146,8414,2,-2,-6,-7,50,157
17.11499999999978,30,-150,8318,27,-4,-38,-2,60,162
17.136999999999716,-108,-80,8388,-20,-6,-51,-4,55,162
17.148999999999887,-24,-324,8354,-30,-2,21,-12,45,172
17.17099999999982,1068,-76,8220,18,6,38,0,55,164
17.182999999999993,206,-264,8354,34,-1,-44,-3,51,156
17.204999999999927,-146,-542,8332,125,8,77,3,56,158
17.22699999999986,200,-26,8380,78,5,74,-6,49,158
17.239000000000033,-64,-532,8308,12,-5,25,-7,60,157
17.260999999999967,56,-52,8318,-3,-4,-3,-7,50,148
17.27300000000014,20,-96,8392,-14,-6,-10,0,50,157
17.295000000000073,-68,22,8394,-45,-6,-17,0,55,164
17.30699999999979,84,-196,8408,-48,-8,-13,-4,50,162
17.328999999999724,22,-150,8350,-47,-4,-12,-7,50,157
17.351000000000113,66,-68,8326,-34,-3,-9,-2,60,164
17.36299999999983,4,-90,8360,-30,-6,-15,-8,62,161
17.384999999999764,-2166,-1180,8826,178,-20,186,-3,64,161
17.396999999999935,-556,-616,8070,-1,-102,630,-9,60,157
17.41899999999987,1670,166,8508,-9,23,541,-2,58,155
17.43100000000004,800,-128,8312,16,-34,350,-1,56,163
17.452999999999975,214,-112,8458,33,-17,239,-4,55,160
17.465000000000146,208,-328,8482,-42,144,83,-7,53,162
17.48700000000008,676,-130,8888,-14,-23,225,-13,62,154
17.509000000000015,-316,290,8274,-18,9,87,2,55,157
17.52099999999973,-470,96,8344,-18,2,18,-12,48,150
17.54300000000012,1278,764,8474,-9,4,-284,-9,50,157
17.554999999999836,1192,-294,6956,-28,-116,-595,-6,51,147
17.57699999999977,-474,-536,8286,-34,-86,-712,-4,58,157
17.588999999999942,846,234,8714,-30,52,-755,-10,64,161
17.610999999999876,-62,118,8004,-40,127,-765,-4,55,160
17.63299999999981,-606,-150,8986,-45,19,-720,-7,48,164
17.644999999999982,1154,-106,8924,-54,25,-655,-2,55,162
17.666999999999916,-562,-44,8422,-83,3,-856,0,58,164
17.679000000000087,-968,-22,8240,-66,5,-654,-2,55,169
17.701000000000022,-116,-546,8478,-42,1,-370,13,56,158
17.712999999999738,268,-294,8352,-64,11,-491,8,51,163
17.735000000000127,-552,-484,7772,-54,-41,-419,1,51,161
17.757000000000062,-154,4,8534,-116,24,-340,14,50,162
17.768999999999778,-566,-344,8428,-118,18,-206,3,62,163
17.790999999999713,-542,-478,8524,-192,-35,-177,2,63,164
17.802999999999884,372,-302,8396,-215,-145,-21,4,58,167
17.824999999999818,252,18,8410,-171,-620,-43,4,55,172
17.83699999999999,-58,-228,8634,-382,-696,-36,9,60,157
17.858999999999924,814,-258,8380,-462,-1338,198,-6,56,170
17.871000000000095,716,-382,9964,-520,-964,98,2,63,162
17.89300000000003,1868,-306,10812,-142,733,-71,-10,31,170
17.914999999999964,362,-940,8292,283,1012,-269,-19,48,176
17.927000000000135,-98,-848,7276,26,587,-99,-3,51,173
17.94900000000007,-174,-590,8052,-116,218,14,-3,49,168
17.960999999999785,-252,-582,8840,-142,397,93,-1,41,161
17.98299999999972,110,-452,9432,-63,-67,422,1,56,166
17.99499999999989,630,-442,9274,168,-648,548,-1,46,166
18.016999999999825,1442,-352,9196,163,-450,221,-3,39,158
18.03899999999976,1330,-584,8828,191,117,-71,1,41,154
18.05099999999993,20,-456,8206,138,546,-284,2,55,157
18.072999999999865,-222,-760,8574,97,642,29,-4,48,155
18.085000000000036,576,-308,9652,129,1060,-80,-2,50,148
18.10699999999997,26,-594,8956,260,415,7,7,43,148
18.119000000000142,548,-186,8544,300,86,-105,7,55,153
18.141000000000076,28,-630,7938,328,-278,-179,14,55,148
18.15328499999987,-128,-326,8290,221,-316,-311,0,58,153
18.174999999999727,-228,-624,8438,252,106,-116,8,44,151
18.197000000000116,212,-316,8078,229,-120,60,1,49,144
18.208999999999833,822,-250,9022,106,-291,-22,12,37,145
18.230999999999767,426,18,9982,254,-284,-213,12,50,145
18.242999999999938,48,-136,9958,497,-386,-175,2,55,141
18.264999999999873,-6,178,9360,632,391,-295,15,54,149
18.277000000000044,-156,-202,8086,607,299,-269,3,59,142
18.298999999999978,-334,-392,8400,504,47,-226,16,60,143
18.320999999999913,28,-72,8906,401,-54,-71,10,69,144
18.333000000000084,-578,144,9770,492,398,1,13,62,142
18.355000000000018,-132,326,8688,659,213,144,29,68,133
18.366999999999734,-586,640,8674,593,19,5,25,67,137
18.389000000000124,346,592,9918,667,693,-34,24,63,131
18.40099999999984,-302,384,6842,707,517,-187,25,72,144
18.427998000000116,-886,62,7064,327,-196,-49,35,79,135
18.440000000000055,-606,742,8762,298,-425,55,29,75,129
18.46199999999999,194,834,8644,411,-536,14,25,82,118
18.47400000000016,-590,928,8190,393,-746,-305,20,84,123
18.496000000000095,-646,1084,9944,420,-633,-13,24,73,126
18.50799999999981,-338,1264,8764,557,177,39,20,82,127
18.529999999999745,-378,996,7284,464,-157,-226,33,86,121
18.541999999999916,-908,1048,9778,282,364,-72,32,79,115
18.56399999999985,-798,1336,8532,663,960,181,35,84,106
18.585999999999785,-538,1530,8034,617,203,602,43,91,112
18.597999999999956,-462,1388,7972,527,-240,391,52,89,103
18.61999999999989,518,1870,8124,342,-824,2,52,97,103
18.632000000000062,-774,1626,8460,465,-20,-112,43,103,100
18.653999999999996,-1286,1648,7666,524,260,113,44,99,89
18.665999999999713,-824,1902,8850,367,689,421,26,93,86
18.688000000000102,-574,2098,9536,582,1129,723,44,110,77
18.700284999999894,16,1870,6282,690,1024,693,62,108,86
18.721999999999753,-1754,1970,7418,199,259,461,38,113,78
18.744000000000142,-1050,2430,7796,349,-191,543,44,122,70
18.755999999999858,-612,2566,7882,407,-307,362,42,122,70
18.777999999999793,-1012,2328,9918,275,975,478,43,131,62
18.789999999999964,-602,2458,8666,472,1675,547,42,135,63
18.811999999999898,-1650,2302,7250,341,1949,618,39,145,63
18.82400000000007,-1932,2406,6642,154,1221,481,39,143,51
18.846000000000004,-1394,2918,7554,153,1159,650,38,144,57
18.867999999999938,-1486,2518,6676,160,96,543,37,155,51
18.88000000000011,-858,2706,5846,81,-1241,433,25,158,41
18.902000000000044,-1480,2630,9122,-67,-1377,369,23,165,53
18.91399999999976,-918,3076,9250,270,-938,402,6,178,49
18.93600000000015,-1272,2534,7472,408,-36,536,-4,177,52
18.947999999999865,-940,2700,7488,204,325,431,-16,187,43
18.9699999999998,-1398,2570,6966,151,-50,458,-33,179,38
18.991999999999734,-1508,2458,6830,113,-315,662,-60,184,47
19.003999999999905,-1122,2844,7538,92,-746,757,-69,173,46
19.02599999999984,-836,2918,8852,250,-398,772,-75,169,43
19.03800000000001,-774,2822,7638,405,519,893,-84,164,52
19.059999999999945,-672,2760,7416,326,485,876,-96,151,54
19.072000000000116,-672,3130,7316,390,1015,753,-119,143,58
19.09400000000005,-1094,2584,5104,199,558,712,-111,124,71
19.105999999999767,-854,2926,5812,-67,-602,895,-118,111,74
19.128000000000156,-822,3248,7996,17,-964,919,-119,97,82
19.15000000000009,48,3262,8560,165,-602,903,-131,89,92
19.161999999999807,-124,3184,7674,271,336,885,-141,74,94
19.18399999999974,-566,3216,7256,251,449,1005,-139,79,96
19.195999999999913,666,3076,6396,84,538,820,-138,48,105
19.217999999999847,-384,2896,6420,33,79,824,-140,32,109
19.230000000000018,-98,3000,6306,-29,-435,849,-131,31,118
19.251999999999953,908,2932,7528,-97,-365,960,-129,26,130
19.273999999999887,1114,2774,7078,34,422,693,-124,3,147
19.286000000000058,446,2784,6976,-46,648,734,-116,0,143
19.307999999999993,1212,2726,6510,-42,435,739,-112,-1,158
19.31999999999971,912,2738,7112,22,634,633,-110,-6,170
19.3420000000001,672,2750,6442,-45,238,623,-92,-12,179
19.353999999999814,1044,2748,6132,-68,-271,528,-88,-6,182
19.37599999999975,1084,2688,7240,-79,-351,607,-77,-17,184
19.39800000000014,1454,2538,7196,-24,374,544,-81,-18,190
19.409999999999854,1150,2544,6928,-45,633,406,-58,-17,184
19.43199999999979,1346,2524,6698,-37,568,528,-53,-12,184
19.44399999999996,1374,2312,6508,-23,532,404,-50,-15,191
19.465999999999894,1536,2582,6320,-213,277,255,-39,-18,182
19.478000000000065,478,2624,7120,-103,-60,263,-27,-18,180
19.5,1674,2848,7562,-146,409,333,-26,-20,184
19.511999999999716,1108,2488,6716,-202,682,241,-19,-17,179
19.534000000000106,1702,2772,6320,-177,464,222,-15,-11,166
19.55600000000004,292,2670,7302,-387,704,68,-10,-24,175
19.567999999999756,196,2410,6158,-324,788,0,6,-18,170
19.590000000000146,-474,2342,6502,-382,158,-13,6,-11,173
19.60199999999986,-1034,2604,8220,-461,-8,112,19,-12,179
19.623999999999796,-1162,2714,9240,-475,367,238,24,-27,148
19.635999999999967,-1314,2506,8602,-288,946,337,25,-24,161
19.6579999999999,-1086,2572,8144,-303,1005,350,29,-25,148
19.679999999999836,-1286,2544,7974,-218,741,361,36,-17,145
19.692000000000007,-1386,2682,7948,-207,153,423,33,-15,121
19.713999999999942,-1724,2650,7520,-157,-232,542,39,-3,127
19.726000000000113,-1438,2686,7894,-176,-245,666,43,-5,119
19.748000000000047,-1262,2732,8266,-106,84,787,44,-6,127
19.759999999999764,-840,2640,7684,-52,372,799,36,10,112
19.782000000000153,-956,2598,7272,-141,300,753,31,12,98
19.804000000000087,-600,2680,8170,-190,481,756,23,16,108
19.815999999999804,-292,2520,7648,-248,456,728,20,24,92
19.837999999999738,-438,2352,7860,-262,477,593,7,30,93
19.84999999999991,118,2490,8332,-281,637,627,10,34,92
19.871999999999844,468,2424,7944,-123,1108,569,8,34,89
19.884000000000015,596,2148,6812,-278,1054,501,-7,48,86
19.90599999999995,-420,1858,7200,-346,709,404,-12,40,93
19.91800000000012,-1102,1842,7030,-409,274,534,-12,50,86
19.940000000000055,-730,1862,7620,-448,-18,543,-10,46,92
19.96199999999999,-660,1828,8212,-404,-412,636,-8,36,94
19.97400000000016,-50,1830,9838,-240,180,544,-24,53,93
19.996000000000095,12,1702,8428,-210,435,476,-27,49,89
20.00799999999981,204,1738,8236,-206,304,365,-37,51,75
20.029999999999745,-516,1692,8688,-194,361,234,-44,46,80
20.041999999999916,-432,1716,8490,-204,412,242,-37,54,99
20.06399999999985,-932,1608,8540,-140,402,326,-43,53,86
20.085999999999785,-88,1544,9056,-114,290,272,-43,50,100
20.097999999999956,-374,1634,8860,2,480,212,-47,46,84
20.11999999999989,-910,1636,7918,4,576,262,-46,45,95
20.132000000000062,-618,1606,7892,-108,458,215,-47,54,87
20.153999999999996,-1104,1732,7490,-31,419,102,-55,43,93
20.165999999999713,-1268,1740,7692,-120,273,131,-49,49,89
20.188000000000102,-1164,1614,7502,-165,54,108,-33,55,102
20.199999999999818,-1272,1710,7730,-164,312,175,-41,48,90
20.221999999999753,-1662,1644,7602,-155,372,102,-38,53,86
20.244000000000142,-1444,1706,8212,-261,367,156,-41,45,95
20.255999999999858,-1730,1920,8612,-151,501,132,-35,41,89
20.277999999999793,-1702,1802,8166,-91,580,138,-50,40,90
20.289999999999964,-1648,1784,7348,-99,448,79,-55,43,90
20.311999999999898,-1890,1626,7370,-182,372,77,-42,51,94
20.32400000000007,-1974,1640,7786,-190,332,88,-49,44,92
20.346000000000004,-2066,1652,7910,-213,349,158,-47,56,94
20.367999999999938,-1550,1562,7858,-147,418,118,-53,55,88
20.38000000000011,-2078,1658,7900,-241,358,50,-38,43,90
20.402000000000044,-2050,1616,8090,-228,178,131,-46,55,102
20.41399999999976,-1710,1626,8306,-182,1,69,-42,56,99
20.430997999999818,-1828,1526,8930,-144,286,82,-48,50,102
20.452999999999975,-2140,1530,8160,-98,211,80,-58,55,95
20.47499999999991,-1654,1596,8040,-121,325,61,-55,75,102
20.48700000000008,-1876,1328,7724,-110,302,66,-50,63,100
20.509000000000015,-1580,1678,8138,-153,249,42,-56,64,99
20.52099999999973,-1876,1474,8118,-117,266,1,-55,53,100
20.54300000000012,-1748,1190,7498,-166,201,6,-53,75,107
20.554999999999836,-2214,1272,8174,-240,39,46,-60,68,102
20.57699999999977,-2140,1432,7998,-203,108,45,-58,60,107
20.588999999999942,-2010,1360,7982,-188,155,-45,-56,72,101
20.610999999999876,-2282,1382,8100,-212,214,-25,-58,73,114
20.63299999999981,-2524,1224,7422,-145,176,-15,-64,77,113
20.644999999999982,-2330,1340,7896,-195,-3,6,-65,81,114
20.666999999999916,-2224,1170,8268,-187,115,17,-60,75,117
20.679000000000087,-2618,1214,7438,-122,247,-46,-64,87,115
20.701000000000022,-2240,1230,7636,-166,289,-19,-56,67,123
20.712999999999738,-2434,1400,7822,-89,259,-49,-56,64,115
20.735000000000127,-2340,1302,6952,-48,351,-62,-61,79,125
20.757000000000062,-2278,1178,6678,-191,202,-80,-66,79,130
20.768999999999778,-2628,1338,7340,-233,2,-69,-58,81,129
20.790999999999713,-2606,1396,7902,-193,107,-31,-66,84,130
20.802999999999884,-2602,1242,7440,-207,135,-6,-65,75,129
20.824999999999818,-2550,1238,7526,-214,174,-60,-73,82,149
20.83699999999999,-2728,1212,7998,-261,147,19,-70,81,153
20.858999999999924,-2620,1222,7848,-198,210,33,-69,92,149
20.871000000000095,-2472,1108,7760,-285,173,56,-71,82,142
20.89300000000003,-2510,1044,7872,-307,161,-15,-76,84,166
20.914999999999964,-2718,1148,8408,-276,47,-12,-78,87,163
20.927000000000135,-2490,956,7396,-209,-38,-41,-71,82,163
20.94900000000007,-2468,798,7732,-340,-56,-79,-69,94,175
20.960999999999785,-2836,892,7734,-310,70,-87,-67,86,186
20.98299999999972,-2724,848,7940,-323,154,-23,-72,88,184
20.99499999999989,-2596,832,7596,-323,92,-38,-76,89,194
21.016999999999825,-2706,652,7866,-325,86,0,-77,88,186
21.03899999999976,-2770,564,7732,-291,17,-11,-75,65,196
21.05099999999993,-2630,-56,7954,-374,74,1,-69,87,202
21.072999999999865,-2426,596,7760,-452,-35,-158,-62,75,210
21.085000000000036,-2954,592,8176,-253,-106,-88,-73,77,204
21.10699999999997,-2666,712,8402,-265,-10,-60,-75,75,224
21.119000000000142,-2830,308,7478,-227,84,-41,-73,69,225
21.141000000000076,-2456,360,8102,-311,253,-56,-70,68,229
21.152999999999793,-2538,314,7924,-297,264,-56,-64,64,228
21.174999999999727,-2758,292,7730,-244,90,-154,-67,68,236
21.197000000000116,-2996,286,7436,-321,-196,-117,-60,63,241
21.208999999999833,-3134,192,7872,-320,-215,-90,-65,50,239
21.230999999999767,-2726,144,8548,-353,-165,-67,-69,56,242
21.242999999999938,-2406,-68,8054,-316,5,-50,-53,45,246
21.264999999999873,-2630,-48,7892,-365,-113,-160,-60,37,251
21.277000000000044,-2966,50,8462,-364,-221,-177,-64,44,247
21.298999999999978,-3012,-128,8232,-335,-334,-142,-56,51,247
21.320999999999913,-2826,-242,10094,-486,-159,-178,-60,22,253
21.333000000000084,-2860,-212,7668,-345,-172,-320,-70,25,260
21.355000000000018,-2870,-408,8364,-445,-355,-104,-62,22,265
21.366999999999734,-2480,-336,8904,-371,-562,-150,-66,21,264
21.389000000000124,-2860,-386,9262,-267,-345,-126,-62,12,267
21.40099999999984,-2440,-628,8556,-220,-127,-98,-60,10,262
21.422999999999774,-2596,-400,8350,-201,-191,-170,-64,1,264
21.434999999999945,-2572,-332,8080,-234,-288,-169,-71,1,264
21.45699999999988,-2970,-264,7704,-275,-492,-142,-61,1,245
21.478999999999814,-2480,-452,7910,-344,-588,-4,-73,1,259
21.490999999999985,-2484,-436,8412,-283,-736,-58,-79,0,262
21.51299999999992,-2628,-552,8534,-169,-463,-11,-79,-12,265
21.52500000000009,-1962,-570,8598,-202,-366,17,-78,-18,256
21.547000000000025,-1872,-546,8056,-125,-79,-68,-85,-16,261
21.55899999999974,-2022,-704,7610,-244,-273,-54,-82,-10,260
21.58100000000013,-1982,-840,8206,-310,-290,-30,-94,-10,255
21.603000000000065,-1808,-728,8112,-276,-534,-51,-85,-24,254
21.61499999999978,-1622,-850,8398,-252,-505,-8,-94,-20,258
21.636999999999716,-1382,-760,8612,-237,-399,-67,-96,-30,253
21.648999999999887,-1866,-1072,8758,-180,34,-94,-110,-34,259
21.67099999999982,-1778,-838,8174,-181,169,-95,-100,-21,256
21.682999999999993,-2144,-856,8796,-189,97,-23,-98,-29,249
21.704999999999927,-1518,-936,8514,-127,-56,31,-99,-32,262
21.72699999999986,-2022,-1094,7786,-141,-20,-15,-96,-30,253
21.739000000000033,-1340,-954,8630,-171,-108,44,-93,-29,259
21.760999999999967,-1762,-1166,8414,-101,65,-77,-98,-44,256
21.77300000000014,-1286,-852,8946,-9,1170,-205,-99,-35,262
21.795000000000073,-2822,-1296,6996,72,1238,-151,-87,-32,255
21.80699999999979,-1690,-1364,6900,-219,388,-21,-88,-31,259
21.828999999999724,-1652,-1136,7450,-233,-71,-60,-77,-35,260
21.840999999999894,-1920,-1154,7440,-312,-581,-136,-79,-30,272
21.86299999999983,-550,-128,10348,817,-1834,364,-92,-45,258
21.884999999999764,-1464,-792,8654,683,-820,241,-105,-39,261
21.896999999999935,-1074,-708,8722,514,-640,261,-99,-40,248
21.91899999999987,-1650,-822,8334,390,-535,177,-106,-35,246
21.93100000000004,-440,-378,8398,312,-521,161,-110,-24,233
21.952999999999975,-1236,-498,8352,272,-539,162,-115,-21,247
21.965000000000146,-1180,-504,8164,172,-731,183,-113,-37,251
21.98700000000008,-820,-786,8078,165,-661,-47,-115,-18,235
22.009000000000015,240,-74,7998,101,-884,83,-127,-31,237
22.02099999999973,-1166,-618,7566,99,-844,104,-134,-21,228
22.04300000000012,0,-512,7180,68,-1321,3,-128,-25,239
22.054999999999836,94,-482,7282,45,-2220,92,-138,-17,231
22.07699999999977,-12,-300,7468,-92,-2905,183,-138,-20,229
22.088999999999942,-48,-440,5580,235,-13,-41,-159,-32,215
22.110999999999876,262,-314,8326,156,2,-61,-165,-29,209
22.13299999999981,294,-464,8392,80,-3,-55,-162,-32,212
22.144999999999982,286,-394,8422,30,3,-35,-164,-43,217
22.166999999999916,-12,-452,8342,27,1,-12,-176,-30,210
22.179000000000087,346,-404,8368,88,-17,132,-167,-30,212
22.201000000000022,14,-452,8242,141,3,170,-168,-29,213
22.212999999999738,360,-168,8446,173,-5,167,-165,-21,221
22.235000000000127,-262,-510,8368,157,-17,199,-164,-17,222
22.246999999999844,-48,-202,8074,165,-31,486,-174,-20,205
22.268999999999778,176,-392,8404,148,-7,378,-165,-31,216
22.290999999999713,-688,-522,8184,150,-31,677,-168,-44,211
22.302999999999884,1828,216,8376,80,-14,414,-170,-21,218
22.324999999999818,-170,-282,8376,56,-11,297,-178,-34,213
22.33699999999999,524,-156,8296,46,-19,405,-173,-29,209
22.358999999999924,120,-248,8326,41,-14,292,-171,-30,203
22.371000000000095,108,-454,8630,7,12,293,-182,-34,213
22.39300000000003,212,-208,8306,-79,-8,12,-179,-35,205
22.414999999999964,292,-292,8366,-33,0,-2,-180,-46,209
22.43199800000002,102,-272,8356,-37,-3,22,-170,-39,213
22.44399999999996,-494,-690,8386,-220,0,-72,-186,-50,205
22.465999999999894,134,-494,8338,-43,-10,172,-188,-37,212
22.478000000000065,290,-260,8404,-14,-18,298,-190,-39,211
22.5,618,-118,8390,-25,0,119,-173,-36,206
22.511999999999716,370,-292,8298,-4,-2,108,-178,-39,204
22.534000000000106,200,-236,8362,-14,0,146,-174,-37,200
22.55600000000004,414,-202,8428,0,-18,190,-179,-37,212
22.567999999999756,602,-108,8096,9,21,230,-186,-45,212
22.590000000000146,530,-152,8368,20,-29,182,-181,-37,210
22.60199999999986,466,-180,8408,8,-17,124,-181,-48,205
22.623999999999796,468,-164,8338,-5,-3,61,-181,-40,205
22.635999999999967,342,-220,8384,-7,-11,32,-178,-51,218
22.6579999999999,330,-194,8396,-5,-9,9,-178,-44,218
22.679999999999836,222,-264,8364,-11,-7,23,-176,-48,210
22.692000000000007,194,-218,8314,-3,-7,49,-182,-46,218
22.713999999999942,228,-276,8396,-12,-10,62,-186,-53,210
22.726000000000113,154,-328,8390,-12,-9,60,-181,-53,217
22.748000000000047,340,-166,8274,-8,34,75,-176,-48,219
22.759999999999764,368,-232,8334,-3,-3,55,-176,-45,207
22.782000000000153,258,-258,8378,-8,-3,88,-185,-49,218
22.79399999999987,318,-212,8368,-7,-16,94,-178,-51,209
22.815999999999804,302,-178,8364,-4,-7,34,-175,-46,206
22.837999999999738,206,-192,8404,-9,-9,5,-180,-46,213
22.84999999999991,438,-134,8354,-6,7,4,-185,-51,211
22.871999999999844,318,-242,8384,-6,-3,2,-174,-50,207
22.884000000000015,246,-240,8360,-12,-7,4,-170,-39,211
22.90599999999995,326,-158,8336,-12,-3,8,-179,-53,200
22.91800000000012,278,-232,8388,-11,-4,15,-176,-43,210
22.940000000000055,278,-296,8366,-9,-6,14,-180,-41,206
22.96199999999999,350,-216,8386,-11,3,23,-174,-45,207
22.97400000000016,238,-246,8380,-10,-6,24,-186,-45,217
22.996000000000095,272,-268,8398,-9,-8,48,-180,-54,211
23.00799999999981,238,-324,8372,-7,-9,49,-178,-56,211
23.029999999999745,524,-208,8378,-14,-3,39,-178,-46,206
23.041999999999916,192,-250,8376,-9,-5,21,-186,-60,207
23.06399999999985,396,-222,8368,-13,1,23,-184,-37,215
23.085999999999785,336,-234,8374,-6,-8,6,-175,-49,206
23.097999999999956,274,-212,8386,-8,-4,9,-185,-46,209
23.11999999999989,300,-286,8360,-7,-2,17,-186,-55,210
23.132000000000062,238,-274,8384,-7,-4,28,-181,-50,207
23.153999999999996,188,-324,8358,-14,-2,39,-174,-50,205
23.165999999999713,44,-280,8294,-6,-10,67,-179,-45,210
23.188000000000102,478,-180,8258,-4,-16,92,-176,-60,207
23.199999999999818,776,-74,8402,-3,-3,36,-171,-53,205
23.221999999999753,394,-174,8406,-13,-2,6,-180,-51,211
23.244000000000142,262,-238,8380,-10,-3,-4,-188,-50,210
23.255999999999858,286,-262,8382,-8,-1,-4,-184,-48,205
23.277999999999793,254,-268,8404,-9,-2,3,-180,-46,216
23.289999999999964,252,-284,8358,-10,-2,23,-176,-58,222
23.311999999999898,354,-230,8362,-8,2,25,-176,-48,207
23.32400000000007,300,-274,8380,-7,-2,30,-178,-49,209
23.346000000000004,342,-262,8360,-7,-1,18,-181,-55,210
23.367999999999938,276,-244,8354,-5,-7,34,-185,-51,213
23.38000000000011,278,-230,8394,1,-2,18,-178,-49,211
23.402000000000044,348,-224,8358,-12,0,19,-179,-50,205
23.41399999999976,272,-244,8366,-5,-3,12,-178,-51,211
23.43600000000015,238,-258,8364,-9,-5,25,-178,-54,204
23.447999999999865,312,-210,8432,-13,0,27,-186,-45,210
23.4699999999998,288,-200,8402,-11,-1,14,-180,-49,202
23.491999999999734,326,-186,8354,-8,-3,7,-173,-54,206
23.503999999999905,298,-284,8344,-10,-5,11,-176,-53,205
23.52599999999984,198,-304,8354,-6,-4,20,-186,-48,203
23.53800000000001,262,-272,8410,-9,-3,11,-175,-54,206
23.559999999999945,418,-222,8390,-12,1,31,-182,-56,211
23.572000000000116,62,-304,8380,-17,-10,55,-190,-62,209
23.59400000000005,430,-250,8372,-8,-5,50,-178,-51,213
23.605999999999767,408,-208,8376,-13,-5,22,-182,-49,204
23.628000000000156,302,-286,8410,-10,-2,0,-176,-53,210
23.65000000000009,152,-312,8416,-10,-6,18,-180,-49,209
23.661999999999807,290,-278,8352,-6,-6,3,-181,-53,215
23.68399999999974,286,-238,8384,-8,-1,-4,-174,-55,198
23.695999999999913,258,-282,8396,-7,-3,6,-180,-59,209
23.717999999999847,290,-246,8352,-8,-5,8,-178,-46,211
23.730000000000018,358,-222,8350,-10,9,13,-173,-54,204
23.751999999999953,244,-254,8380,-11,-6,2,-181,-58,212
23.773999999999887,624,-16,8392,-2,0,42,-182,-59,197
23.786000000000058,280,-274,8366,-3,-5,-4,-182,-56,216
23.807999999999993,412,-218,8400,-11,-3,2,-176,-60,207
23.81999999999971,368,-166,8382,-11,0,13,-184,-58,207
23.8420000000001,278,-246,8386,-4,-3,3,-176,-40,215
23.853999999999814,294,-308,8380,-14,0,12,-184,-50,198
23.87599999999975,238,-244,8370,-4,3,18,-175,-56,204
23.888284999999996,240,-310,8404,-13,-2,34,-188,-58,210
23.909999999999854,188,-290,8388,-6,-2,38,-178,-56,202
23.93199999999979,324,-224,8386,-8,-4,31,-188,-65,210
23.94399999999996,448,-66,8364,-11,-8,-2,-187,-64,218
23.965999999999894,314,-224,8360,-8,-4,-2,-188,-53,210
23.978000000000065,290,-268,8364,-9,-3,-4,-185,-54,204
24.0,324,-206,8386,-8,-1,-9,-179,-60,210
24.011999999999716,278,-198,8360,-15,-3,-6,-169,-53,205
24.034000000000106,334,-224,8374,-11,0,-7,-185,-54,202
24.05600000000004,270,-230,8402,-14,-1,-7,-175,-59,197
24.067999999999756,296,-244,8380,-10,3,-8,-173,-54,204
24.090000000000146,320,-242,8358,-10,2,-3,-170,-64,209
24.10199999999986,286,-202,8396,-11,-1,-1,-185,-54,204
24.123999999999796,266,-290,8406,-12,0,-7,-176,-55,205
24.135999999999967,318,-252,8366,-10,-3,-4,-186,-48,205
24.1579999999999,304,-240,8352,-8,-2,-3,-180,-51,199
24.179999999999836,316,-280,8394,-11,-1,-5,-178,-54,211
24.192000000000007,286,-260,8376,-9,0,-9,-182,-56,213
24.213999999999942,310,-216,8374,-7,-2,-3,-178,-46,213
24.226000000000113,308,-238,8368,-11,-3,-3,-185,-44,204
24.248000000000047,322,-278,8392,-9,-1,1,-180,-44,211
24.259999999999764,304,-206,8382,-11,-5,-2,-176,-50,198
24.282000000000153,302,-248,8372,-10,-2,-3,-173,-51,209
24.29399999999987,312,-240,8362,-13,-5,-7,-179,-58,207
24.315999999999804,312,-240,8394,-10,-1,-6,-175,-62,199
24.337999999999738,292,-238,8362,-8,1,-6,-176,-58,207
24.34999999999991,358,-234,8402,-10,-2,-4,-187,-54,202
24.371999999999844,334,-166,8384,-14,-5,-2,-174,-58,212
24.384000000000015,326,-294,8362,-6,0,-7,-187,-62,206
24.40599999999995,292,-238,8388,-10,-4,-6,-170,-49,206
24.41800000000012,328,-246,8392,-8,-5,-6,-176,-60,203
24.4352829999998,318,-272,8370,-10,-2,-7,-187,-59,213
24.45699999999988,314,-274,8384,-15,0,-9,-176,-60,205
24.478999999999814,314,-206,8390,-9,-1,-4,-182,-51,209
24.490999999999985,266,-242,8418,-11,1,-7,-184,-50,203
24.51299999999992,328,-218,8380,-12,-2,-5,-179,-55,210
24.52500000000009,284,-226,8378,-12,-4,-5,-184,-55,205
24.547000000000025,304,-236,8388,-14,-6,-7,-184,-58,203
24.55899999999974,326,-190,8356,-12,-1,-2,-171,-58,200
24.58100000000013,338,-238,8382,-8,0,-8,-176,-45,210
24.603000000000065,352,-230,8392,-14,-2,-6,-182,-46,197
24.61499999999978,350,-202,8378,-16,2,-7,-187,-59,206
24.636999999999716,314,-218,8422,-10,-1,-6,-176,-58,200
24.648999999999887,328,-218,8358,-14,-1,-6,-175,-62,211
24.67099999999982,300,-206,8382,-13,0,-8,-180,-62,202
24.682999999999993,298,-298,8426,-13,-3,-6,-179,-60,207
24.704999999999927,294,-214,8336,-2,3,-13,-186,-55,207
24.72699999999986,308,-210,8314,-6,-2,-9,-173,-64,199
24.739000000000033,344,-210,8408,-11,-1,-8,-188,-60,205
24.760999999999967,334,-228,8382,-58,0,-9,-188,-53,212
24.77300000000014,276,-226,8346,-14,-1,-4,-175,-44,211
24.795000000000073,310,-250,8382,-41,-3,-3,-173,-64,218
24.80699999999979,268,-268,8350,-22,-131,-16,-171,-40,200
24.828999999999724,334,-262,8362,24,-392,-14,-178,-62,199
24.840999999999894,822,-368,8332,77,-628,-100,-181,-58,207
24.86299999999983,584,-266,8302,87,-709,-186,-192,-44,204
24.884999999999764,1836,-56,8484,13,-706,-575,-198,-70,198
24.896999999999935,668,-382,7840,27,-859,-889,-194,-59,197
24.91899999999987,1496,-426,8270,-30,-893,-866,-196,-53,200
24.93100000000004,1232,-1222,8392,-101,-700,-834,-201,-43,186
24.952999999999975,1732,-1002,7074,-257,-682,-1027,-192,-46,182
24.965000000000146,1672,-1170,7130,-736,-826,-1005,-213,-37,184
24.98700000000008,950,-1260,13262,-1545,-402,-549,-213,-30,181
25.009000000000015,1458,-482,11452,-756,-356,-140,-204,-41,173
25.02099999999973,2286,-1056,10376,-166,-96,-616,-211,-44,180
25.04300000000012,2270,-1006,8682,-56,-473,-1208,-205,-32,164
25.054999999999836,2676,-596,9294,-268,-558,-1775,-203,-50,172
25.07699999999977,1958,-1208,9380,-347,-166,-2289,-205,-25,167
25.088999999999942,1528,-1612,9080,-217,0,-1951,-210,-22,157
25.110999999999876,1766,-1444,9690,-9,42,-974,-203,-15,167
25.13299999999981,1556,-1086,8490,-4,762,-598,-199,-11,166
25.144999999999982,2062,-868,8582,-49,906,-516,-196,0,164
25.166999999999916,1544,-790,8878,-3,662,-450,-198,-5,167
25.179000000000087,2100,-1040,8128,53,360,-569,-194,11,168
25.201000000000022,1202,-1344,8198,112,19,-619,-178,16,175
25.212999999999738,1868,-484,9014,186,-369,-496,-184,7,167
25.235000000000127,1670,-936,8658,138,-95,-589,-178,11,163
25.246999999999844,2196,-986,8394,122,-259,-628,-178,21,168
25.268999999999778,2170,-808,9028,205,-128,-680,-175,31,156
25.290999999999713,1766,-738,8488,355,-13,-677,-179,30,160
25.302999999999884,2192,-348,9112,493,145,-718,-173,29,156
25.324999999999818,1984,-754,7220,573,91,-766,-168,44,149
25.33699999999999,1558,-614,6972,437,-234,-700,-171,45,145
25.358999999999924,1520,-396,7338,362,-459,-554,-168,41,123
25.371000000000095,1866,84,7682,262,-274,-625,-151,59,130
25.39300000000003,1724,74,7582,298,-93,-664,-151,51,123
25.414999999999964,2104,266,7874,282,-110,-645,-155,55,126
25.427000000000135,2226,416,8086,354,100,-776,-144,64,115
25.44900000000007,2184,208,7636,347,182,-963,-144,62,115
25.460999999999785,1392,200,7408,290,67,-1046,-145,73,105
25.48299999999972,1450,52,7580,253,-62,-850,-136,77,113
25.49499999999989,1822,360,7974,145,-248,-825,-136,82,101
25.516999999999825,1768,510,8196,245,-61,-866,-135,75,105
25.528999999999996,1866,576,8050,309,86,-876,-129,87,94
25.55099999999993,1736,414,7740,375,140,-855,-125,81,95
25.572999999999865,1702,466,7428,454,225,-876,-111,81,98
25.585000000000036,1542,180,7018,402,261,-816,-111,86,90
25.60699999999997,1840,498,7094,324,163,-849,-106,96,93
25.619000000000142,1978,694,7062,239,125,-1078,-101,91,86
25.641000000000076,1584,758,7022,170,-4,-1207,-85,84,89
25.652999999999793,1574,1010,7418,110,-86,-1324,-102,94,89
25.674999999999727,1488,1224,7698,158,-77,-1257,-92,103,93
25.697000000000116,1390,1462,6906,138,-65,-1231,-88,92,84
25.708999999999833,606,1332,6848,90,-6,-1123,-81,97,87
25.730999999999767,500,1620,7218,26,-87,-947,-71,97,92
25.742999999999938,566,1648,8026,-59,-76,-1058,-64,94,84
25.764999999999873,954,2000,7370,-96,70,-1242,-64,94,89
25.777000000000044,558,1968,8062,-160,74,-1237,-62,103,81
25.798999999999978,348,1436,7884,-337,119,-1284,-60,96,90
25.820999999999913,-368,1540,8296,-309,-26,-883,-54,110,92
25.833000000000084,150,2150,8642,-208,17,-822,-53,106,98
25.855000000000018,-304,1714,8720,-3,-76,-618,-42,117,101
25.866999999999734,194,1928,8102,28,-62,-617,-31,106,112
25.889000000000124,442,1988,8452,54,-29,-749,-26,111,112
25.90099999999984,252,1964,8174,24,-95,-828,-26,121,114
25.922999999999774,-258,1506,8208,-88,88,-950,-21,113,114
25.934999999999945,-22,1808,8242,-52,-40,-769,-18,127,123
25.95699999999988,-28,1608,8308,-96,-5,-767,-19,106,126
25.978999999999814,248,1928,8770,-126,108,-842,-20,99,127
25.990999999999985,52,1748,8388,8,200,-837,-9,118,129
26.01299999999992,-212,1604,8490,33,19,-655,-7,118,119
26.02500000000009,164,1572,8090,68,-93,-562,-14,113,138
26.047000000000025,324,1560,7812,101,-130,-534,-2,121,153
26.05899999999974,6,1664,8076,77,-158,-499,1,112,142
26.08100000000013,192,1800,8388,79,-227,-399,-6,107,142
26.103000000000065,388,1808,8192,85,-159,-389,-4,111,157
26.11499999999978,530,1922,8592,95,1,-558,-7,106,153
26.136999999999716,388,1800,7830,-5,21,-719,-3,107,161
26.148999999999887,220,1714,7944,-19,66,-755,-6,102,161
26.17099999999982,-24,1742,7860,-26,-155,-573,-7,106,157
26.182999999999993,-144,1744,8160,-17,-159,-443,-6,110,163
26.204999999999927,360,1730,8244,-21,-129,-402,-10,99,163
26.21728499999972,314,1902,8250,21,-60,-485,-7,106,157
26.239000000000033,382,1812,8116,45,-22,-503,-6,110,163
26.260999999999967,296,1612,7756,35,-71,-474,-13,99,161
26.27300000000014,514,1782,8052,-10,-167,-528,-12,106,160
26.295000000000073,438,1770,8038,-27,-129,-549,-9,103,155
26.30699999999979,36,1638,8016,-19,-80,-478,-13,110,161
26.328999999999724,600,1946,8464,11,-78,-440,-12,111,164
26.340999999999894,770,1908,7942,15,-77,-504,-13,97,161
26.36299999999983,388,1806,7982,9,-145,-511,-9,106,162
26.384999999999764,222,1650,7928,30,-130,-485,-18,99,156
26.396999999999935,336,1678,7616,-22,-182,-478,-8,107,151
26.41899999999987,234,1850,7970,-56,-149,-513,-12,96,145
26.435997999999927,348,1772,7756,7,0,-539,-14,103,157
26.447999999999865,202,1664,7324,-28,-124,-439,-14,111,160
26.4699999999998,162,1964,7854,-57,-102,-392,-3,110,151
26.48199999999997,766,1938,7980,-39,-21,-459,-6,107,132
26.503999999999905,772,1878,8020,-34,22,-567,-13,99,142
26.52599999999984,1042,1902,7912,-23,-43,-623,-9,101,136
26.53800000000001,872,1750,7938,-52,-72,-669,-3,105,144
26.559999999999945,342,1770,8158,-81,-109,-734,-2,101,141
26.572000000000116,410,1904,8576,-44,6,-693,0,108,145
26.59400000000005,128,1736,8072,-1,2,-568,4,113,136
26.605999999999767,750,1672,8182,-10,25,-585,2,113,133
26.628000000000156,80,1784,8080,-77,-2,-714,6,122,137
26.65000000000009,-146,1884,8324,-88,7,-715,8,112,132
26.661999999999807,174,1948,8458,-2,72,-599,15,105,139
26.68399999999974,-138,1862,8180,-13,153,-648,21,118,133
26.695999999999913,-78,1808,7980,-33,170,-546,29,113,136
26.717999999999847,-96,1890,7826,-60,171,-611,27,117,130
26.730000000000018,-122,1936,8214,-83,161,-629,30,107,135
26.751999999999953,-280,1648,7598,-41,94,-562,26,116,136
26.773999999999887,-90,1810,8096,-53,-7,-522,38,118,143
26.786000000000058,-166,1702,7696,-69,-87,-548,39,115,137
26.807999999999993,-586,1804,7850,-140,-117,-510,58,121,136
26.81999999999971,-456,1854,8220,-96,-52,-466,44,115,139
26.8420000000001,-368,1818,8176,-67,107,-486,46,111,143
26.853999999999814,190,1844,8128,-34,182,-499,44,120,142
26.87599999999975,208,1696,7624,-61,34,-578,56,122,149
26.88799999999992,510,1694,7868,-65,-144,-583,59,122,161
26.909999999999854,266,1458,7634,-110,-277,-660,56,120,154
26.93199999999979,-592,1774,8012,-170,-477,-614,53,124,150
26.94399999999996,-668,1788,8378,-142,-358,-504,58,106,164
26.965999999999894,-688,1622,8046,-165,-152,-419,56,115,173
26.978000000000065,-536,1634,8396,-141,-36,-456,60,108,186
27.0,-466,1714,8356,-179,-99,-487,66,112,192
27.011999999999716,-698,1580,7968,-85,-169,-466,55,111,179
27.034000000000106,-266,1414,7810,-124,-275,-382,59,112,182
27.05600000000004,-530,1680,8230,-187,-393,-405,64,117,199
27.067999999999756,-350,1720,10714,-150,-378,-152,61,122,194
27.090000000000146,1096,2020,8738,-353,-33,-654,53,129,212
27.10199999999986,-396,1480,8010,-266,7,-663,44,110,209
27.123999999999796,-434,1366,7778,-201,-273,-476,43,111,207
27.135999999999967,-36,1596,8206,-193,-228,-460,32,107,223
27.1579999999999,-576,1542,8108,-105,-209,-413,38,111,210
27.179999999999836,-222,1574,7708,-52,-208,-270,36,108,227
27.192000000000007,-94,1496,7714,-155,-193,-294,30,99,213
27.213999999999942,0,1392,7898,-186,-167,-360,15,115,228
27.226000000000113,-160,1376,8080,-162,-295,-318,27,112,225
27.248000000000047,-102,1216,7820,-124,-153,-283,9,113,224
27.259999999999764,-116,1232,7876,-200,-275,-193,12,113,231
27.282000000000153,178,1330,8184,-210,-209,-110,2,98,241
27.29399999999987,990,1362,8346,-124,-63,-215,-4,113,231
27.315999999999804,684,1094,7658,-196,-178,-428,-12,113,239
27.337999999999738,462,1130,8130,-191,-80,-487,-16,111,234
27.34999999999991,-92,1090,8072,-239,-132,-485,-24,113,236
27.371999999999844,-102,1158,8236,-203,-73,-295,-26,121,239
27.384000000000015,-302,1208,8200,-191,-4,-247,-29,103,243
27.40599999999995,-46,1118,7866,-182,-7,-157,-47,102,230
27.41800000000012,74,1186,7942,-186,-162,-67,-37,115,233
27.440000000000055,330,1138,7736,-140,-223,-49,-56,102,225
27.46199999999999,478,1336,7882,-189,-215,-281,-66,97,218
27.47400000000016,90,1226,7790,-203,-209,-297,-59,105,223
27.496000000000095,510,966,7912,-217,-154,-290,-76,112,221
27.50799999999981,638,1126,8392,-229,-113,-256,-78,107,211
27.529999999999745,266,1152,7836,-171,-140,-215,-88,112,194
27.541999999999916,352,898,8026,-216,-317,-133,-98,105,190
27.56399999999985,-100,738,7736,-230,-390,-208,-89,103,191
27.576000000000022,-24,1344,8396,-292,-526,-237,-93,112,178
27.597999999999956,4,1212,8492,-239,-578,-241,-108,101,162
27.61999999999989,366,1140,8350,-131,-376,-95,-106,103,150
27.632000000000062,764,1042,8618,-26,-102,-135,-108,111,138
27.653999999999996,1080,862,7906,-64,-147,-202,-110,112,125
27.665999999999713,686,918,8550,3,-146,-143,-105,110,120
27.688000000000102,328,574,7940,-38,-200,-120,-93,120,111
27.710000000000036,-2594,-630,8774,-275,-233,71,-95,115,89
27.721999999999753,764,958,6654,-280,8,-396,-94,108,74
27.744000000000142,254,616,9834,-590,121,-678,-98,115,65
27.755999999999858,226,806,8928,-279,97,-460,-81,117,65
27.777999999999793,618,472,8536,-176,184,-508,-82,118,66
27.789999999999964,518,408,8160,-138,294,-545,-69,115,56
27.811999999999898,302,256,7892,-265,325,-417,-48,121,47
27.82400000000007,30,522,8640,-418,321,-471,-43,116,45
27.846000000000004,804,666,9062,-362,182,-331,-38,113,38
27.867999999999938,778,654,9042,-251,56,-304,-39,122,41
27.88000000000011,456,284,8550,-145,27,-339,-24,113,31
27.902000000000044,270,194,8608,-154,150,-253,-14,101,19
27.91399999999976,-318,4,8060,-223,321,-303,-6,110,32
27.93600000000015,276,204,8820,-278,442,-313,-7,118,16
27.947999999999865,234,172,8516,-236,450,-354,10,105,17
27.9699999999998,230,188,8076,-284,151,-391,3,107,17
27.991999999999734,538,240,8518,-361,-413,-335,24,98,9
28.003999999999905,60,210,9164,-286,-388,-307,26,108,23
28.02599999999984,-266,310,9208,-141,-129,-222,32,105,17
28.03800000000001,40,228,8946,-29,-15,-124,30,105,17
28.059999999999945,576,126,8746,-56,129,-176,37,87,29
28.072000000000116,208,222,9158,-37,219,-157,42,112,22
28.09400000000005,990,-86,8168,-54,412,-213,44,112,27
28.105999999999767,134,130,8214,-212,73,-396,50,98,23
28.128000000000156,-492,42,8702,-180,104,-284,47,94,27
28.15000000000009,-660,-332,8090,-159,58,-45,52,105,15
28.161999999999807,-556,-410,7524,-243,77,8,60,96,23
28.18399999999974,-542,-168,8164,-349,-168,147,64,92,25
28.195999999999913,280,-88,8388,-239,67,150,66,102,25
28.217999999999847,968,142,9134,-204,-147,63,56,105,22
28.230000000000018,790,-130,8696,-46,8,-117,69,99,22
28.251999999999953,170,-30,8508,-31,119,-165,79,98,26
28.273999999999887,-614,-424,7562,26,294,-52,67,98,19
28.286000000000058,-242,-382,7562,-91,553,36,64,107,25
28.307999999999993,0,-342,7696,-198,328,112,71,97,15
28.31999999999971,220,-18,8594,-222,113,31,70,91,21
28.3420000000001,536,-130,8510,-151,24,-3,73,105,17
28.353999999999814,760,-234,8234,-145,134,-218,76,99,5
28.37599999999975,332,-436,7964,-192,75,-303,87,106,11
28.38799999999992,104,-618,7800,-262,182,-336,81,99,15
28.409999999999854,-896,-534,8100,-351,96,-236,90,92,17
28.43699800000013,-718,-190,9362,-284,-80,-10,89,96,11
28.44900000000007,54,-372,9126,-159,-123,97,89,103,21
28.460999999999785,270,-78,9294,-123,-73,-76,96,96,19
28.48299999999972,100,-144,9026,-2,70,-135,104,103,21
28.49499999999989,-232,-354,8558,48,129,-124,104,101,23
28.516999999999825,274,164,8682,34,590,-133,119,107,20
28.528999999999996,-852,-714,7436,50,299,-40,107,107,25
28.55099999999993,-284,-492,7394,-196,-28,25,105,102,22
28.572999999999865,106,-354,8060,-310,-170,-17,105,99,29
28.585000000000036,792,-240,8500,-295,-491,-87,124,110,22
28.60699999999997,216,-196,8664,-237,-742,-204,113,113,38
28.619000000000142,-98,0,9664,-124,-756,-112,116,103,31
28.641000000000076,404,-394,8946,139,-119,-176,111,106,33
28.652999999999793,-342,-256,8150,-2,-507,-186,119,99,41
28.674999999999727,132,-310,9642,29,-311,-188,119,99,34
28.697000000000116,96,-528,8850,205,151,-151,116,108,31
28.708999999999833,-358,-810,7144,130,-305,29,122,102,37
28.730999999999767,150,-514,8122,-34,-631,106,116,96,28
28.742999999999938,396,-638,8696,334,-411,95,117,105,49
28.764999999999873,438,-528,8334,242,-321,142,123,103,31
28.777000000000044,530,-370,8372,194,-206,4,118,111,33
28.798999999999978,458,-422,8370,235,-279,-10,111,101,31
28.820999999999913,608,-310,8360,245,-260,-25,118,108,33
28.833000000000084,668,-218,8368,116,-28,-51,117,102,39
28.855000000000018,666,-264,8336,131,-70,-9,112,120,32
28.866999999999734,650,-280,8304,38,52,-28,116,106,33
28.889000000000124,616,-286,8338,-15,117,-52,112,110,44
28.90099999999984,486,-84,8382,-64,180,-109,119,115,46
28.922999999999774,666,-130,8320,-124,338,-188,113,111,28
28.934999999999945,428,-222,8400,-62,225,-102,121,108,45
28.95699999999988,416,-190,8384,-39,183,-92,131,112,37
28.978999999999814,342,-260,8320,-93,264,-125,119,117,37
28.990999999999985,346,-392,8316,-100,299,-82,118,108,26
29.01299999999992,166,-512,8256,-93,296,11,125,106,45
29.02500000000009,-20,-424,8346,-141,399,116,122,107,41
29.047000000000025,542,-94,8356,-90,290,320,122,105,37
29.05899999999974,596,-34,8354,-73,190,30,127,115,32
29.08100000000013,112,-248,8360,-6,65,-45,123,118,40
29.103000000000065,420,-400,8418,-24,119,-103,124,105,29
29.11499999999978,58,-166,8366,-89,232,-198,127,112,29
29.136999999999716,128,-460,8338,-88,257,-184,121,108,31
29.148999999999887,-216,-342,8370,-48,261,-188,127,105,20
29.17099999999982,296,-664,8304,-112,394,-69,133,111,33
29.182999999999993,-74,-70,8338,-63,290,-7,122,99,32
29.204999999999927,-336,-366,8310,-90,558,-32,121,106,31
29.2170000000001,1326,28,16564,3182,7859,-122,131,105,25
29.239000000000033,-28,-586,7392,4291,4335,-179,134,112,3
29.260999999999967,-2102,-120,4082,361,3706,-409,129,110,-13
29.27300000000014,-2700,78,4090,20,-38,24,133,111,-9
29.295000000000073,-2234,670,7554,-402,-1472,152,134,102,-27
29.30699999999979,-2038,462,8862,-683,-1091,-10,139,105,-27
29.328999999999724,-2098,576,8770,-26,-624,-10,138,106,-26
29.340999999999894,-1982,586,7642,-4,-491,9,134,110,-25
29.36299999999983,-1976,462,6924,-279,-1072,-62,133,111,-14
29.384999999999764,-1736,286,7958,-525,-1726,64,133,111,-19
29.396999999999935,-1264,286,10130,-538,-712,15,127,112,-8
29.41899999999987,-1422,318,9362,259,291,-48,138,98,-2
29.43100000000004,-1494,464,7658,373,451,-48,135,98,-4
29.452999999999975,-1666,482,7236,-86,-85,-29,142,101,-11
29.465000000000146,-1364,496,8568,-189,-214,-29,135,96,-4
29.48700000000008,-1222,314,8552,-4,-56,-94,134,107,-13
29.509000000000015,-2516,206,8490,106,109,-84,134,99,-8
29.52099999999973,-1578,342,7872,-47,-25,-20,135,108,-4
29.54300000000012,-1444,416,8350,-38,-6,-30,141,107,-3
29.554999999999836,-1804,-280,7082,9,-626,-19,131,102,-15
29.57699999999977,-1380,314,8046,-419,-849,-24,141,99,-5
29.588999999999942,-1154,300,8592,-417,-845,-22,139,105,1
29.610999999999876,-1068,188,9010,-237,-453,-14,133,103,-4
29.623000000000047,-1066,184,9008,12,50,-3,133,113,-4
29.644999999999982,-1118,218,8606,204,433,1,130,101,-2
29.666999999999916,-1218,254,8124,239,512,-2,140,106,-4
29.679000000000087,-1318,340,7820,136,314,0,134,110,-3
29.701000000000022,-1362,376,7776,-19,-19,-6,147,106,0
29.712999999999738,-1278,310,7998,-158,-301,-11,133,113,-11
29.735000000000127,-1204,260,8286,-198,-394,-20,138,101,-4
29.746999999999844,-1160,250,8578,-138,-267,-15,134,102,-1
29.768999999999778,-1160,190,8668,-15,-5,-9,140,93,-4
29.790999999999713,-1142,226,8454,92,211,-1,135,111,9
29.802999999999884,-1214,264,8180,114,257,-5,145,108,0
29.824999999999818,-1254,276,8036,71,163,-6,139,99,3
29.83699999999999,-1264,296,8006,-17,-22,-8,133,103,-2
29.858999999999924,-1246,266,8098,-94,-178,-9,138,103,7
29.871000000000095,-1220,240,8292,-114,-205,-11,136,110,-10
29.89300000000003,-1152,274,8442,-70,-121,-11,130,101,2
29.914999999999964,-1088,210,8500,3,32,-9,148,112,-1
29.927000000000135,-1190,276,8322,52,135,-12,136,107,-5
29.94900000000007,-1226,292,8182,52,135,-8,144,110,-5
29.960999999999785,-1250,252,8120,14,47,-5,136,110,1
29.98299999999972,-1236,290,8140,-37,-58,-10,134,112,1
29.99499999999989,-1210,318,8226,-70,-121,-10,136,102,-1
30.016999999999825,-1176,212,8336,-62,-100,-9,136,115,5
30.028999999999996,-1160,264,8396,-26,-22,-8,144,107,-1
30.05099999999993,-1194,206,8354,15,51,-6,140,103,2
30.072999999999865,-1202,330,8270,26,76,-8,129,112,1
30.085000000000036,-1234,316,8200,15,46,-7,135,101,-2
30.10699999999997,-1272,322,8200,-16,-11,-11,140,108,-11
30.119000000000142,-1206,296,8202,-38,-66,-11,140,106,0
30.141000000000076,-1188,280,8304,-40,-68,-12,133,103,-4
30.152999999999793,-1168,274,8340,-27,-27,-14,146,107,-1
30.174999999999727,-1164,292,8328,1,21,-11,138,106,4
30.197000000000116,-1196,266,8282,11,46,-6,135,116,-4
30.208999999999833,-1268,266,8176,6,28,-9,138,106,11
30.230999999999767,-1204,326,8206,-14,-17,-12,135,98,9
30.242999999999938,-1210,250,8254,-30,-34,-8,133,93,-2
30.264999999999873,-1194,272,8320,-24,-35,-13,144,115,3
30.277000000000044,-1208,208,8324,-20,-25,-10,142,103,-9
30.298999999999978,-1220,294,8294,-10,3,-8,147,106,-2
30.320999999999913,-1198,230,8242,3,18,-3,140,111,2
30.333000000000084,-1248,232,8212,-11,11,-4,138,113,-7
30.355000000000018,-1226,246,8212,-15,-7,-8,133,113,4
30.366999999999734,-1208,256,8240,-22,-14,-14,141,112,1
30.389000000000124,-1214,286,8256,-21,-21,-6,138,116,-2
30.40099999999984,-1176,232,8302,-19,-15,-10,141,107,1
30.422999999999774,-1160,240,8266,0,11,-8,140,111,0
30.439997999999832,-1188,282,8232,-2,15,-8,142,118,2
30.46199999999999,-1184,248,8276,-13,-7,-11,134,107,8
30.47400000000016,-1162,230,8234,-18,-18,-10,141,110,-5
30.496000000000095,-1162,294,8272,-18,-13,-7,130,116,-2
30.50799999999981,-1208,276,8258,-21,-14,-7,133,103,-2
30.529999999999745,-1168,246,8306,-11,4,-11,138,113,7
30.541999999999916,-1210,262,8252,-6,12,-7,123,101,4
30.56399999999985,-1208,234,8288,-16,-6,-14,142,113,-7
30.576000000000022,-1222,204,8266,-12,-4,-5,140,111,2
30.597999999999956,-1178,286,8284,-15,-3,-7,140,101,0
30.61999999999989,-1206,300,8296,-16,-13,-9,136,102,1
30.632000000000062,-1180,264,8314,-20,-15,-10,133,108,-2
30.653999999999996,-1172,216,8300,-17,-10,-10,136,105,-5
30.665999999999713,-1158,254,8260,-6,12,-7,134,107,3
30.688000000000102,-1230,268,8212,-8,11,-11,139,99,-3
30.699999999999818,-1162,266,8244,-15,-10,-14,136,105,-5
30.721999999999753,-1224,232,8262,-18,-10,-10,135,103,-9
30.744000000000142,-1180,276,8224,-11,-6,-8,139,112,-1
30.755999999999858,-1196,264,8304,-19,-14,-9,138,113,0
30.777999999999793,-1178,278,8224,-8,0,-9,136,105,-5
30.789999999999964,-1200,288,8218,-13,0,-13,130,106,0
30.811999999999898,-1214,206,8226,-16,-10,-3,144,102,-1
30.82400000000007,-1152,224,8240,-9,1,-13,139,99,1
30.846000000000004,-1220,270,8234,-12,-2,-9,138,101,7
30.867999999999938,-1164,256,8228,-20,-17,-6,138,101,-2
30.88000000000011,-1190,278,8272,-11,-8,-9,141,112,-1
30.902000000000044,-1180,290,8272,-6,3,-7,134,107,-5
30.91399999999976,-1196,256,8236,-19,-10,-6,140,108,4
30.93600000000015,-1188,220,8256,-8,-1,-7,138,106,-9
30.947999999999865,-1186,264,8296,-8,0,-10,145,106,-4
30.9699999999998,-1184,226,8282,-22,-29,-9,141,102,-3
30.98199999999997,-1204,270,8264,-15,-6,-9,131,99,-3
31.003999999999905,-1158,282,8232,-2,15,-8,146,110,8
31.02599999999984,-1244,284,8242,-21,-11,-9,139,105,-1
31.03800000000001,-1136,256,8240,-14,-13,-9,141,110,-3
31.059999999999945,-1176,250,8264,-8,0,-6,133,113,4
31.072000000000116,-1204,278,8242,-10,-9,-8,129,112,1
31.09400000000005,-1166,264,8220,-14,-8,-14,135,113,-7
31.105999999999767,-1172,262,8230,-7,0,-7,135,103,-14
31.128000000000156,-1200,244,8256,-14,-15,-6,134,105,-3
31.15000000000009,-1170,232,8272,-17,-13,-5,145,111,0
31.161999999999807,-1130,264,8244,-7,3,-9,131,110,-1
31.18399999999974,-1164,278,8284,-12,-6,-11,145,108,2
31.195999999999913,-1148,230,8232,-18,-8,-8,142,103,-2
31.217999999999847,-1154,224,8236,-5,2,-10,141,107,-1
31.230000000000018,-1166,256,8210,-14,-12,-6,139,107,-8
31.251999999999953,-1106,248,8296,-14,-12,-8,136,99,-8
31.264000000000124,-1210,262,8260,-13,-9,-7,133,103,2
31.286000000000058,-1174,254,8264,-13,0,-11,128,113,-7
31.307999999999993,-1198,316,8262,-13,-5,-8,135,108,0
31.31999999999971,-1174,200,8252,-11,-9,-9,142,111,7
31.3420000000001,-1166,270,8244,-9,-4,-8,133,103,4
31.353999999999814,-1216,214,8282,-18,-12,-7,141,117,-5
31.37599999999975,-1180,232,8236,-15,-8,-8,134,110,-3
31.38799999999992,-1178,256,8242,-11,-5,-9,134,102,-3
31.409999999999854,-1174,244,8254,-13,-6,-5,140,108,-2
31.43199999999979,-1246,226,8224,-13,-3,-7,142,98,2
31.44399999999996,-1168,266,8224,-14,-4,-8,134,105,-3
31.465999999999894,-1186,226,8250,-12,-6,-14,135,101,-4
31.478000000000065,-1156,252,8238,-12,-8,-7,138,101,2
31.5,-1216,244,8232,-16,-5,-6,139,107,10
31.511999999999716,-1190,278,8284,-11,-4,-6,133,101,-14
31.534000000000106,-1206,262,8270,-14,-7,-3,151,102,-1
31.55600000000004,-1164,224,8278,-17,-7,-8,138,106,4
31.567999999999756,-1198,248,8260,-14,-6,-10,134,110,-1
31.590000000000146,-1208,264,8264,-15,-11,-9,141,102,1
31.60199999999986,-1168,220,8258,-11,0,-8,130,93,-4
31.623999999999796,-1178,250,8310,-15,-7,-9,133,101,0
31.635999999999967,-1180,280,8250,-13,-7,-7,141,102,-3
31.6579999999999,-1180,250,8274,-12,-5,-5,129,105,1
31.670000000000073,-1182,230,8278,-10,-8,-7,134,92,-3
31.692000000000007,-1180,264,8306,-15,-11,-4,136,102,3
31.713999999999942,-1114,244,8246,-15,-5,-8,131,102,1
31.726000000000113,-1192,278,8248,-13,1,-5,142,103,-7
31.748000000000047,-1142,248,8254,-14,-10,-9,141,102,3
31.759999999999764,-1168,276,8290,-15,-5,-7,135,98,4
31.782000000000153,-1194,256,8266,-6,1,-8,131,99,1
31.79399999999987,-1138,218,8270,-12,-8,-8,140,106,0
31.815999999999804,-1144,226,8294,-11,-2,-8,138,103,-2
31.837999999999738,-1154,258,8254,-9,-5,-3,136,105,5
31.84999999999991,-1150,280,8222,-13,-10,-7,139,94,-3
31.871999999999844,-1150,260,8262,-16,-6,-10,141,107,-5
31.884000000000015,-1164,268,8284,-10,-1,-9,141,110,-8
31.90599999999995,-1132,232,8260,-16,-8,-8,138,113,-4
31.91800000000012,-1182,252,8242,-14,-6,-11,138,106,2
31.940000000000055,-1184,294,8240,-10,1,-12,142,103,0
31.96199999999999,-1198,260,8318,-9,-10,-8,140,93,0
31.97400000000016,-1222,246,8282,-19,-9,-9,139,107,-8
31.996000000000095,-1134,254,8248,-8,-4,-6,138,103,-2
32.00799999999981,-1144,180,8210,-14,-2,-9,135,103,-7
32.029999999999745,-1196,230,8238,-19,-13,-8,138,113,-4
32.041999999999916,-1202,280,8298,-8,2,-9,147,103,0
32.06399999999985,-1244,304,8198,-16,-3,-9,139,99,-1
32.07600000000002,-1160,222,8252,-7,-2,-10,123,106,-7
32.097999999999956,-1140,254,8316,-10,-5,-9,135,108,-7
32.11999999999989,-1158,256,8236,-17,-16,-8,138,103,-2
32.13200000000006,-1188,244,8236,-14,-9,-11,141,105,-5
32.153999999999996,-1200,244,8276,-13,3,-9,136,107,-10
32.16599999999971,-1166,268,8252,-11,3,-9,127,112,3
32.1880000000001,-1162,244,8314,-13,-10,-11,133,111,2
32.19999999999982,-1154,248,8226,-12,-1,-12,135,106,-4
32.22199999999975,-1174,260,8278,-14,-2,-12,136,105,8
32.24400000000014,-1140,268,8274,-15,-15,-9,145,116,-2
32.25599999999986,-1152,266,8244,-9,-5,-3,130,113,7
32.27799999999979,-1172,250,8260,-11,-2,-10,142,96,-2
32.289999999999964,-1170,226,8278,-16,-7,-8,139,105,-8
32.3119999999999,-1188,238,8264,-8,-2,-3,139,115,-8
32.32400000000007,-1156,238,8272,-16,-5,-10,135,101,-4
32.346000000000004,-1140,252,8252,-16,-11,-10,130,113,4
32.358284999999796,-1136,210,8254,-12,-1,-7,134,107,-1
32.38000000000011,-1126,252,8280,-13,-6,-9,144,99,1
32.402000000000044,-1176,266,8252,-19,-8,-9,140,111,4
32.41399999999976,-1152,252,8290,-13,-2,-11,142,108,2
32.440998000000036,-1172,286,8226,-13,1,-7,139,107,-5
32.452999999999975,-1126,256,8276,-16,-10,-7,133,101,0
32.465000000000146,-1142,256,8252,-13,-6,-7,135,111,-7
32.48700000000008,-1174,210,8258,-9,-2,-9,138,101,7
32.509000000000015,-1164,262,8236,-14,-5,-10,139,110,1
32.52099999999973,-1220,254,8230,-10,-2,-12,131,105,-8
32.54300000000012,-1172,266,8272,-14,-9,-7,138,93,-4
32.554999999999836,-1158,236,8252,-13,-4,-5,142,113,2
32.57699999999977,-1180,264,8244,-14,-10,-8,134,107,-3
32.58899999999994,-1154,274,8286,-15,-7,-12,135,113,-2
32.610999999999876,-1136,276,8200,-9,-4,-11,146,105,-1
32.62300000000005,-1136,234,8276,-19,-18,-9,144,99,-1
32.64499999999998,-1166,218,8324,-13,3,-6,136,102,1
32.666999999999916,-1168,240,8300,-9,-1,-7,142,108,-2
32.67900000000009,-1150,280,8272,-14,-8,-7,145,106,-2
32.70100000000002,-1128,244,8240,-4,8,-11,134,102,-8
32.71299999999974,-1176,262,8258,-14,-8,-4,140,113,-9
32.73500000000013,-1176,236,8274,-18,-11,-6,140,106,14
32.746999999999844,-1148,286,8290,-10,-1,-6,136,99,1
32.76899999999978,-1112,246,8222,-12,-3,-9,142,108,2
32.79099999999971,-1156,218,8250,-17,-8,-13,140,108,-4
32.802999999999884,-1134,290,8286,-12,-2,-5,141,107,1
32.82499999999982,-1190,246,8254,-13,0,-7,138,106,2
32.83699999999999,-1114,268,8270,-12,-9,-5,134,107,3
32.858999999999924,-1196,232,8288,-19,0,-10,147,108,0
32.871000000000095,-1154,276,8264,-11,-2,-7,136,99,-1
32.89300000000003,-1188,256,8232,-16,-3,-8,146,112,-3
32.90528499999982,-1144,226,8244,-11,-4,-6,136,110,3
32.927000000000135,-1128,258,8234,-9,0,-8,133,96,9
32.94900000000007,-1158,224,8248,-14,-12,-8,124,99,5
32.960999999999785,-1200,246,8230,-16,-8,-6,141,110,-1
32.98299999999972,-1218,228,8258,-10,4,-8,129,110,13
32.99499999999989,-1118,286,8244,-13,-4,-4,125,111,2
33.016999999999825,-1182,312,8246,-11,-2,-6,139,110,-1
33.028999999999996,-1212,260,8220,-15,-7,-7,141,107,-5
33.05099999999993,-1136,258,8262,-16,-14,-5,133,103,0
33.072999999999865,-1158,248,8284,-14,-7,-8,128,108,4
33.085000000000036,-1184,212,8252,-14,-5,-7,136,112,-5
33.10699999999997,-1126,206,8252,-13,-10,-8,136,99,-3
33.11900000000014,-1128,226,8264,-10,-5,-10,135,106,-2
33.141000000000076,-1342,18,7812,-147,-300,-110,141,94,3
33.15299999999979,-1534,12,8166,-212,-402,41,147,101,4
33.17499999999973,-1326,194,8870,-98,-210,198,136,120,1
33.197000000000116,-806,412,8336,-19,125,201,134,102,-8
33.20899999999983,-432,466,8342,114,137,22,140,106,-2
33.23099999999977,-1012,282,7728,7,42,-11,141,107,1
33.24299999999994,-1080,164,8226,-108,-196,-16,136,99,-1
33.26499999999987,-1008,168,8498,-69,-118,-14,135,111,11
33.277000000000044,-1014,192,8260,-40,-58,-9,135,118,0
33.29899999999998,-1050,154,8310,-55,-87,-2,151,105,-5
33.31100000000015,-962,136,8478,11,44,-8,124,105,15
33.333000000000084,-1006,174,8296,52,119,-8,146,115,15
33.35500000000002,-1054,166,8126,35,83,-7,133,103,0
33.366999999999734,-860,108,10042,191,450,33,133,108,0
33.389000000000124,-1090,-316,8232,375,794,46,146,107,3
33.40099999999984,-1214,690,7074,-56,43,-108,129,115,-3
33.422999999999774,-1492,150,8278,-432,-319,-290,130,116,4
33.434999999999945,-1560,-100,9266,-271,-195,-143,142,103,7
33.45699999999988,-972,174,8270,-256,-254,-209,145,103,9
33.478999999999814,-1022,122,7518,-323,-307,-241,140,101,9
33.490999999999985,314,956,8022,-398,-429,-524,133,103,9
33.51299999999992,-2156,-24,10052,-194,-485,-246,133,106,14
33.52500000000009,-404,176,8246,-109,-92,68,153,94,3
33.547000000000025,-736,-78,8110,-129,-241,-174,136,105,-3
33.55899999999974,-1576,-308,8476,-196,-345,63,139,97,20
33.58100000000013,-1212,-258,8740,-168,-154,226,133,101,9
33.603000000000065,-1282,-298,8138,-202,-67,190,139,105,10
33.61499999999978,-1714,-398,7186,-363,-259,239,142,111,7
33.636999999999716,-450,-500,10362,-552,-788,539,147,111,11
33.64899999999989,-1624,50,9288,-252,201,146,144,94,22
33.67099999999982,-1454,50,10404,-227,317,310,136,110,17
33.68299999999999,-974,-166,9606,161,801,320,131,115,15
33.70499999999993,-904,-312,8738,139,714,395,135,103,11
33.7170000000001,-1600,-460,8328,129,472,402,127,102,15
33.73900000000003,-2178,-428,8426,2,108,576,121,106,9
33.76099999999997,-1592,26,9352,10,-179,697,116,111,7
33.77300000000014,-1588,-378,7730,48,-403,613,118,106,9
33.79500000000007,-624,48,9576,-100,-213,432,106,103,7
33.80699999999979,-1106,224,9394,16,-18,350,101,111,21
33.82899999999972,-822,126,9344,156,181,457,93,115,10
33.840999999999894,-1170,-312,9062,289,654,396,83,97,-3
33.86299999999983,-1418,-606,7848,246,134,591,88,110,5
33.88499999999976,-814,136,8660,171,134,425,71,97,10
33.896999999999935,-872,64,8514,173,-34,286,59,97,10
33.91899999999987,-1976,-274,7798,227,-371,331,62,103,9
33.93100000000004,-2602,-34,8768,266,-459,627,61,105,15
33.952999999999975,-952,118,8788,313,23,522,43,106,16
33.965000000000146,-2358,164,8788,393,310,412,46,106,19
33.98700000000008,-1558,-156,8038,409,378,761,30,110,20
33.99928499999987,-272,18,8232,316,341,584,31,108,23
34.02099999999973,-2004,394,8942,280,-36,531,20,110,39
34.04300000000012,-1686,332,8708,429,253,706,12,116,38
34.054999999999836,-1546,300,8322,419,51,729,9,118,45
34.07699999999977,-1342,486,8660,484,106,673,8,117,56
34.08899999999994,-1700,564,9126,543,389,539,1,117,60
34.110999999999876,-1572,544,8028,570,593,482,-18,122,68
34.12300000000005,-1468,508,7888,575,433,657,-1,122,75
34.14499999999998,-1296,558,7914,578,179,711,-10,140,87
34.166999999999916,-1414,672,7768,544,83,629,-23,137,92
34.17900000000009,-1506,1042,7738,493,70,533,-18,143,101
34.20100000000002,-1934,1148,8064,517,55,692,-9,139,107
34.21299999999974,-1170,1132,8168,477,209,699,-3,143,111
34.23500000000013,-1638,944,7926,508,301,669,-4,139,124
34.246999999999844,-1726,1048,7600,549,-127,917,-12,144,126
34.26899999999978,-1738,1398,7732,363,-156,861,-1,148,135
34.29099999999971,-1242,1684,8064,344,-121,603,-10,137,135
34.302999999999884,-1544,1512,7960,288,34,505,-6,143,147
34.32499999999982,-1306,1762,8026,241,244,477,1,150,144
34.33699999999999,-1778,1870,7896,229,68,503,4,164,150
34.358999999999924,-1808,1720,8324,284,154,556,13,150,158
34.371000000000095,-1688,1990,8136,295,186,633,16,136,148
34.39300000000003,-1420,1840,7836,261,54,738,12,136,150
34.414999999999964,-1090,2172,8376,274,18,753,29,136,157
34.427000000000135,-1350,2506,8396,283,6,582,24,151,150
34.44399799999974,-1820,2346,8464,370,34,587,27,140,151
34.465999999999894,-1200,2010,7816,388,118,629,43,141,148
34.478000000000065,-1440,2090,7294,287,2,667,36,139,138
34.5,-1210,2338,7896,255,57,825,47,148,142
34.511999999999716,-1200,2612,8338,338,-25,818,39,140,137
34.534000000000106,-1416,2388,7700,422,86,904,47,145,132
34.55600000000004,-706,2502,7304,408,23,922,44,140,120
34.567999999999756,-1088,2412,7768,338,-11,796,43,139,119
34.590000000000146,-918,2650,7670,281,-58,827,42,137,118
34.60199999999986,-1080,2684,7796,371,102,771,36,136,109
34.623999999999796,-796,2978,7758,441,201,755,37,135,103
34.63599999999997,-1030,2666,7090,457,291,725,32,137,106
34.6579999999999,-1432,2572,7354,430,313,827,32,140,92
34.67000000000007,-628,2610,6896,392,223,845,46,151,98
34.69200000000001,-808,2836,7152,339,138,781,37,153,92
34.71399999999994,-362,3112,7614,368,144,717,30,143,94
34.72600000000011,-454,3076,7264,411,226,591,26,146,86
34.74800000000005,-758,3172,7276,417,155,618,21,139,83
34.75999999999976,-328,3142,7046,442,309,579,15,145,80
34.78200000000015,-488,3000,6556,423,281,605,30,143,77
34.79399999999987,-418,3124,6184,296,221,650,24,144,83
34.8159999999998,-528,3620,7042,242,181,562,14,144,71
34.83799999999974,-436,3570,7174,327,284,652,25,145,68
34.84999999999991,-236,3698,6834,330,327,585,23,150,68
34.871999999999844,-470,3784,6594,309,297,614,8,145,77
34.884000000000015,-770,3742,6460,332,252,771,14,149,71
34.90599999999995,-882,3766,6516,324,341,946,9,156,59
34.91800000000012,-346,3676,5976,281,362,1055,18,137,65
34.940000000000055,18,3680,6062,127,342,987,1,153,72
34.95199999999977,90,4032,7000,73,481,725,1,143,60
34.97400000000016,238,3964,7216,93,502,600,4,141,69
34.996000000000095,40,3738,6886,67,657,552,6,163,68
35.00799999999981,528,3858,7034,19,438,429,3,158,56
35.029999999999745,-466,3742,7154,22,363,341,-4,149,62
35.041999999999916,-294,3826,7014,-27,297,454,-1,145,63
35.06399999999985,-570,3804,6794,-11,298,469,-8,150,60
35.07600000000002,-20,4044,7094,-22,392,472,0,144,59
35.097999999999956,-34,4146,7388,40,430,280,0,144,69
35.11999999999989,-196,3750,6264,45,530,225,-8,148,58
35.13200000000006,-346,3778,6488,-78,389,232,-8,143,60
35.153999999999996,-2,4066,6892,-80,502,267,-7,146,64
35.16599999999971,116,4268,7050,-30,429,194,-3,148,60
35.1880000000001,0,4050,6212,-31,474,118,-6,153,65
35.19999999999982,-468,4160,6296,-139,300,148,-2,146,54
35.22199999999975,-764,4482,6982,-117,266,196,1,140,70
35.24400000000014,-502,4374,6710,-45,586,111,-9,146,62
35.25599999999986,-350,4072,6312,-151,520,49,-7,151,64
35.27799999999979,-288,4310,6732,-273,208,50,-1,155,63
35.289999999999964,-1154,4496,7418,-188,254,-43,0,151,74
35.3119999999999,-942,4148,7058,-148,354,21,-6,153,72
35.32400000000007,-642,4062,7292,-171,369,19,-1,150,65
35.346000000000004,-938,3992,7030,-181,466,45,-1,153,72
35.35799999999972,-688,4272,7252,-175,384,117,2,149,74
35.38000000000011,-990,4008,6976,-151,343,10,-4,146,74
35.402000000000044,-1066,3872,6958,-181,195,69,4,146,78
35.41399999999976,-566,3918,7034,-208,301,17,9,144,71
35.43600000000015,-904,3728,6760,-241,230,-22,1,143,75
35.447999999999865,-764,3866,7558,-253,150,91,9,154,76
35.4699999999998,-554,3808,7444,-186,247,55,12,159,74
35.48199999999997,-714,3714,7054,-156,306,-56,1,145,77
35.503999999999905,-958,3458,6906,-158,276,-121,4,144,81
35.52599999999984,-918,3154,6442,-207,107,-107,-3,143,84
35.53800000000001,-1258,3538,7260,-224,75,-100,1,143,84
35.559999999999945,-1324,3710,7294,-138,-31,57,2,151,83
35.572000000000116,-1024,3502,6918,-140,116,41,13,143,80
35.59400000000005,-1074,3150,6512,-251,62,-61,12,149,88
35.60599999999977,-1314,3480,7318,-343,50,-144,8,140,82
35.628000000000156,-1686,3472,7300,-260,71,-310,8,140,87
35.65000000000009,-1896,3476,7434,-282,36,-273,6,143,77
35.66199999999981,-1428,3348,7268,-288,11,-195,6,143,77
35.68399999999974,-1520,3152,6992,-314,19,-259,4,139,90
35.69599999999991,-1372,3230,7514,-324,-67,-230,12,141,88
35.71799999999985,-1540,3124,7358,-302,-208,-193,7,154,90
35.73000000000002,-2080,2954,7250,-360,-291,-51,16,151,90
35.75199999999995,-2232,3150,7740,-306,-187,5,10,137,96
35.764000000000124,-1714,3166,7676,-247,-8,8,12,151,90
35.78600000000006,-1672,3032,7300,-215,-21,-27,14,149,102
35.80799999999999,-1646,2966,7292,-291,-47,67,-2,144,102
35.81999999999971,-1106,3060,7852,-283,56,-18,10,140,99
35.8420000000001,-1674,2794,7368,-277,-10,-118,7,164,105
35.853999999999814,-2120,2688,7604,-339,-21,-34,19,139,95
35.87599999999975,-1926,2874,7880,-308,77,-67,18,148,92
35.88799999999992,-2116,2866,7958,-235,36,-36,12,141,95
35.909999999999854,-2074,2690,7492,-241,-34,35,9,141,102
35.93199999999979,-1442,2678,7714,-243,-109,7,9,151,98
35.94399999999996,-2082,2442,7170,-236,-211,-58,24,156,100
35.965999999999894,-1824,2834,7838,-260,-161,-26,14,144,112
35.978000000000065,-1798,2904,7848,-205,-191,13,7,149,105
36.0,-1204,2728,7606,-169,-81,-67,15,153,106
36.011999999999716,-1290,2524,7276,-234,-147,-207,15,153,106
36.034000000000106,-1478,2684,7432,-272,-213,-187,21,149,107
36.04599999999982,-1562,2946,8276,-241,-220,-114,16,154,98
36.067999999999756,-1464,2766,7780,-164,-101,-110,8,160,108
36.090000000000146,-1164,2480,7210,-144,-80,-80,13,145,101
36.10199999999986,-798,2666,7086,-185,-149,-115,12,159,100
36.123999999999796,-822,2788,7278,-190,-103,-234,8,153,111
36.13599999999997,-1238,2556,6992,-217,25,-466,15,158,108
36.1579999999999,-1154,2340,6866,-235,138,-469,14,164,100
36.17000000000007,-994,2074,6958,-336,-126,-269,25,175,113
36.19200000000001,-1026,1994,6966,-355,-216,-156,16,174,98
36.21399999999994,-554,2308,7818,-386,-353,-116,20,178,108
36.22600000000011,-1130,2240,7902,-348,-381,-181,27,183,106
36.24800000000005,-1030,2294,8468,-235,-32,-319,26,182,105
36.25999999999976,-1702,1712,7434,-184,53,-422,36,187,109
36.28200000000015,-1382,1720,7570,-263,-96,-229,29,212,98
36.29399999999987,-954,1734,7844,-323,-238,-228,37,198,103
36.3159999999998,-1268,1856,8138,-292,-83,-457,37,206,106
36.33799999999974,-1416,1712,8234,-243,8,-415,49,216,108
36.34999999999991,-1584,1536,8108,-238,75,-413,46,232,100
36.371999999999844,-2082,1632,8030,-174,-14,-329,48,232,93
36.384000000000015,-1874,1446,7782,-169,-166,-133,50,237,107
36.40599999999995,-1042,1422,8224,-156,-317,-26,54,251,96
36.41800000000012,-1112,1382,8016,-130,-380,-181,61,249,101
36.44499799999994,-1698,1556,8224,-156,-439,-245,54,261,94
36.45699999999988,-2002,1560,8322,-89,-502,-207,53,258,102
36.478999999999814,-1830,1094,8016,-67,-268,-167,58,273,95
36.490999999999985,-1404,1002,8168,-150,122,-256,55,268,93
36.51299999999992,-1356,1236,8312,-186,224,-321,58,268,93
36.52500000000009,-1730,812,7588,-125,-122,-243,59,267,82
36.547000000000025,-1876,1288,8538,-129,-192,-24,61,282,89
36.55899999999974,-1600,1352,8040,-116,-63,-24,64,282,75
36.58100000000013,-4852,-34,7270,-487,-17,7,54,277,70
36.59299999999985,-512,1876,7024,-288,-32,-75,60,270,69
36.61499999999978,-396,1732,8628,-428,-5,-435,44,261,75
36.636999999999716,-1660,792,8324,-410,42,-327,54,254,63
36.64899999999989,-1196,1146,8518,-419,-151,16,50,255,54
36.67099999999982,-1522,1802,9192,-356,2,-240,52,254,63
36.68299999999999,752,2352,8668,-576,45,-271,41,245,54
36.70499999999993,-1486,828,9482,-266,-138,-58,33,230,50
36.7170000000001,-258,1052,8186,-370,28,-62,36,220,35
36.73900000000003,-950,1182,9056,-270,-176,-309,31,225,40
36.76099999999997,-1460,974,8222,-396,-241,-330,33,210,38
36.77300000000014,-1980,882,8986,-254,-296,-206,27,198,44
36.79500000000007,-1682,924,8830,-286,-278,-70,23,193,39
36.80699999999979,-1376,300,7768,-221,-294,25,14,172,35
36.82899999999972,-324,526,8122,-481,-472,-118,27,165,27
36.840999999999894,-644,778,8488,-519,-842,-226,18,160,39
36.86299999999983,-1060,934,9572,-410,-712,-308,10,145,32
36.88499999999976,-802,1000,9656,-307,-533,-307,6,143,29
36.896999999999935,-114,1008,9644,-189,-248,-470,2,134,28
36.91899999999987,-988,172,8560,68,-120,-455,1,125,34
36.93100000000004,-1608,394,8560,-58,-467,-11,1,120,20
36.952999999999975,-1244,500,8796,-57,-183,162,7,121,23
