Tiempo,AccX,AccY,AccZ,GyrX,GyrY,GyrZ,MagX,MagY,MagZ
0.0,1224,-576,8038,-30,-11,27,23,-165,103
0.011999999999943611,1148,-518,8090,-19,-27,-1,15,-170,94
0.033999999999991815,1136,-420,8088,-14,-38,22,15,-178,108
0.045999999999935426,1124,-436,8230,-2,-26,12,16,-184,112
0.06799999999998363,1166,-418,8240,12,27,22,18,-168,103
0.08999999999991815,1126,-478,8290,11,-4,-2,14,-167,109
0.10199999999997544,1188,-488,8432,11,9,4,14,-177,107
0.12399999999990996,1234,-594,8374,3,-2,10,19,-172,102
0.13599999999996726,1128,-678,8420,-6,41,14,19,-177,105
0.15800000000001546,1204,-660,8384,9,32,48,24,-179,107
0.16999999999995907,1200,-600,8136,4,6,41,23,-180,111
0.19200000000000728,1124,-526,8306,-9,29,0,18,-163,89
0.2039999999999509,1184,-394,8088,-1,29,34,18,-175,106
0.2259999999999991,1044,-544,8042,-15,-4,1,16,-179,102
0.2479999999999336,1074,-474,8154,-17,13,7,16,-179,109
0.2599999999999909,1208,-514,8140,3,50,30,24,-174,107
0.2819999999999254,1154,-610,8198,-6,52,3,19,-169,107
0.2939999999999827,1044,-578,8156,-20,-13,13,16,-174,109
0.31599999999991724,1164,-456,8172,-46,-23,-3,18,-170,106
0.32799999999997453,870,-434,8118,-33,-12,-12,20,-178,108
0.34999999999990905,1008,-312,8066,-27,33,8,23,-175,103
0.37199999999995725,1100,-438,8064,-14,31,20,23,-175,106
0.38400000000001455,1280,-570,8110,-20,37,-8,21,-177,109
0.40599999999994907,1198,-580,8150,-34,14,-13,26,-169,107
0.41800000000000637,1180,-526,8186,-16,-13,29,23,-173,99
0.4399999999999409,1376,-462,8128,-10,55,5,24,-174,102
0.4519999999999982,1190,-534,8076,0,-30,-28,26,-177,98
0.4739999999999327,1228,-504,7958,-8,-22,8,19,-179,112
0.4959999999999809,1224,-506,8032,23,16,-8,24,-182,102
0.5079999999999245,1072,-512,8090,41,47,16,25,-180,111
0.5299999999999727,1056,-550,8120,56,-37,22,31,-174,112
0.5419999999999163,1090,-494,8164,49,5,10,18,-178,108
0.5639999999999645,956,-516,8156,31,-32,-16,18,-173,106
0.5760000000000218,1090,-384,8214,5,25,3,23,-173,103
0.5979999999999563,954,-452,8184,-9,4,-31,18,-173,108
0.6100000000000136,1080,-496,8098,-26,13,-40,19,-182,95
0.6319999999999482,1014,-544,8172,-27,-10,-27,23,-168,106
0.6539999999999964,1022,-570,8276,-30,8,-44,20,-180,101
0.66599999999994,1104,-608,8230,-35,-28,-11,16,-169,105
0.6879999999999882,1370,-336,8392,-47,-23,-9,20,-186,118
0.6999999999999318,1130,-698,8276,-32,12,-22,26,-177,102
0.72199999999998,1238,-616,8208,-63,5,-20,32,-186,103
0.7339999999999236,1088,-448,8164,-37,-71,0,27,-178,103
0.7559999999999718,1176,-356,7998,-9,-16,12,20,-178,103
0.77800000000002,1142,-300,8006,7,18,-7,25,-175,103
0.7899999999999636,1020,-454,8196,19,7,-6,24,-174,109
0.8120000000000118,1114,-428,8010,8,4,33,25,-173,103
0.8239999999999554,1292,-286,8078,-17,-78,0,23,-178,101
0.8460000000000036,1040,-336,8098,-6,-19,-33,19,-174,102
0.8579999999999472,1062,-376,8096,0,5,-20,25,-175,108
0.8799999999999955,1022,-384,8102,10,-23,-8,24,-174,114
0.8919999999999391,1206,-372,8128,-7,-5,-41,20,-178,111
0.9139999999999873,1000,-556,8230,-3,-24,-45,25,-173,106
0.9359999999999218,1178,-538,8162,-19,-11,-11,25,-188,111
0.9479999999999791,1306,-552,8150,-31,-30,-29,19,-182,114
0.9699999999999136,1180,-464,8288,-20,-19,-39,19,-174,109
0.9819999999999709,1164,-540,8094,-10,8,-19,21,-179,109
1.004000000000019,1172,-530,8088,-20,-28,-38,24,-164,109
1.0159999999999627,1066,-426,7964,-24,-56,-47,21,-172,102
1.038000000000011,1166,-448,7972,-32,-5,-40,13,-186,103
1.0599999999999454,1066,-578,8028,-25,-36,-49,18,-170,111
1.0720000000000027,1170,-504,8072,-15,-32,-26,18,-178,99
1.0989979999999377,1284,-478,8134,2,-38,-40,21,-172,107
1.11099999999999,1116,-550,8212,27,-24,-26,23,-180,108
1.1229999999999336,1280,-470,8124,17,-44,-30,16,-187,107
1.1449999999999818,1084,-424,8154,28,-63,-35,19,-177,107
1.1569999999999254,1116,-376,8390,35,-15,-31,24,-172,107
1.1789999999999736,1146,-386,8240,51,-21,6,25,-178,101
1.2010000000000218,992,-138,8106,63,6,4,10,-173,108
1.2129999999999654,1270,-346,8586,-3,-62,-95,15,-170,99
1.2350000000000136,924,-848,8254,-145,-33,-130,21,-184,95
1.2469999999999573,1094,-396,7954,24,-147,-63,24,-179,109
1.2690000000000055,1234,-320,8032,-2,-142,-21,14,-184,105
1.280999999999949,1408,-296,7960,-43,-48,-45,8,-178,115
1.3029999999999973,1210,-272,8584,24,-210,-127,13,-178,108
1.3249999999999318,1176,-424,8374,41,134,-11,20,-186,103
1.336999999999989,1428,-344,8210,106,223,-56,16,-172,100
1.3589999999999236,1208,-470,8134,149,128,-40,23,-175,106
1.370999999999981,1548,-552,7832,121,118,-16,25,-168,108
1.3929999999999154,1304,-790,8024,30,222,-22,26,-174,102
1.4049999999999727,1278,-470,8002,-84,157,1,29,-172,117
1.427000000000021,814,-420,8398,-56,-88,3,15,-173,108
1.439284999999927,466,-366,8776,82,150,155,33,-164,100
1.4610000000000127,1094,-414,8160,187,385,308,16,-177,95
1.4829999999999472,1234,-370,8096,195,305,214,27,-178,111
1.4950000000000045,308,-524,8318,213,145,245,25,-173,113
1.516999999999939,792,-534,8240,200,25,402,29,-169,109
1.5289999999999964,1112,-442,8598,149,221,368,26,-172,100
1.5509999999999309,1026,-296,8436,164,332,369,27,-170,113
1.5629999999999882,-156,-690,9000,359,600,598,24,-167,119
1.5849999999999227,-214,-1064,7424,630,1475,914,33,-167,107
1.606999999999971,2260,202,8268,309,741,782,29,-169,102
1.6189999999999145,1384,454,6960,228,215,148,39,-165,99
1.6409999999999627,1024,364,8100,79,-234,-119,46,-162,114
1.65300000000002,754,86,7538,91,-1220,-387,42,-158,106
1.6749999999999545,844,-8,7802,-105,-1490,-423,41,-156,117
1.6870000000000118,168,-250,8666,85,-1714,-243,35,-160,115
1.7089999999999463,1268,-100,8506,158,-1091,95,31,-151,119
1.7309999999999945,1772,306,8850,186,-319,43,29,-167,117
1.7429999999999382,1254,-116,8488,269,290,-26,21,-156,119
1.7649999999999864,1416,154,8046,166,338,-73,29,-164,114
1.77699999999993,1566,282,8046,26,307,-132,19,-164,117
1.7989999999999782,708,-18,8598,10,73,-131,26,-156,121
1.8109999999999218,920,60,8302,70,164,77,27,-165,118
1.83299999999997,1456,332,7634,19,-2,4,35,-148,120
1.8449999999999136,1038,196,7900,-65,-197,-51,24,-154,112
1.8669999999999618,1154,286,7822,-49,-119,7,23,-155,101
1.88900000000001,992,150,8012,1,54,89,24,-162,124
1.9009999999999536,1314,186,7900,68,203,174,24,-144,109
1.9230000000000018,1690,346,7612,34,109,85,20,-163,118
1.9349999999999454,1164,222,7710,-80,5,-46,25,-163,115
1.9569999999999936,1066,158,8156,-60,-155,-10,25,-153,120
1.9689999999999372,1604,166,7906,-64,-50,48,24,-169,121
1.9909999999999854,1462,124,8114,-85,-83,23,27,-150,111
2.01299999999992,1198,160,8274,-24,-7,25,25,-155,118
2.0249999999999773,1142,142,8232,-28,-9,60,25,-158,123
2.046999999999912,1324,210,8240,-82,44,52,14,-159,109
2.058999999999969,1250,86,8396,-127,-179,-2,20,-165,125
2.0810000000000173,1070,24,8664,-100,-18,96,13,-158,115
2.092999999999961,1532,168,8080,-77,-3,82,27,-155,125
2.115000000000009,1560,110,8144,-154,-208,-53,27,-155,130
2.1369999999999436,1108,12,8298,-108,-182,-48,30,-165,113
2.149000000000001,752,-120,8386,-59,-201,80,18,-158,130
2.1709999999999354,1316,74,8650,1,-98,208,26,-154,109
2.1829999999999927,1734,136,8142,-19,-211,54,36,-154,114
2.2049999999999272,1310,-4,8468,-76,-229,-58,25,-165,113
2.2169999999999845,1190,-54,8556,-17,14,23,27,-158,106
2.238999999999919,1600,86,8524,-33,113,-27,18,-163,118
2.2509999999999764,1144,-74,8394,-25,-143,-29,24,-159,119
2.272999999999911,1712,32,8392,-22,-45,62,23,-158,118
2.294999999999959,1492,12,8136,-7,66,-19,27,-150,115
2.3070000000000164,1448,14,8306,-9,62,72,19,-159,109
2.328999999999951,1852,116,8228,27,127,60,19,-154,119
2.341000000000008,1544,-36,7958,-4,181,5,26,-156,117
2.3629999999999427,1478,20,7750,8,123,25,29,-162,126
2.375,1568,0,7910,-5,50,52,26,-162,109
2.3969999999999345,1534,82,7916,0,14,27,19,-159,114
2.4189999999999827,1418,34,7866,12,-70,0,16,-162,109
2.4309999999999263,1434,18,8010,-32,-67,-36,26,-164,114
2.4529999999999745,1256,-2,8006,-20,-212,-13,23,-155,118
2.464999999999918,1514,88,7990,-36,-170,12,23,-150,120
2.4869999999999663,1376,-18,8108,-26,-142,-46,27,-143,120
2.49899999999991,1230,-24,8068,-15,-19,43,26,-164,114
2.520999999999958,1560,90,8010,0,111,21,15,-163,115
2.5430000000000064,1454,34,7984,-18,198,34,33,-156,117
2.55499999999995,1624,94,7860,-25,251,-22,14,-159,121
2.576999999999998,1244,-34,7816,-70,123,-71,14,-151,121
2.588999999999942,1320,52,7918,-74,2,-25,24,-156,119
2.61099999999999,1434,46,7902,-77,-124,-41,21,-156,114
2.6229999999999336,1214,-28,8124,-97,-349,-50,27,-158,106
2.644999999999982,1276,-30,8236,-121,-382,-4,31,-162,119
2.6569999999999254,1400,-32,8296,-182,-353,-25,29,-154,124
2.6789999999999736,1378,-156,7976,-66,-416,46,18,-165,123
2.701000000000022,2062,6,7664,-77,-303,48,26,-164,114
2.7129999999999654,1246,-170,8348,-41,-275,30,20,-153,118
2.7350000000000136,1588,-80,8268,44,-156,141,14,-164,119
2.7469999999999573,2176,16,8096,-36,-62,36,29,-167,119
2.7690000000000055,1506,-204,8582,-54,-88,-19,18,-158,118
2.780999999999949,1678,-80,8586,-4,-67,43,19,-162,112
2.8029999999999973,1758,-18,8422,31,38,45,23,-165,115
2.824999999999932,1730,-90,8370,-16,31,-15,4,-159,124
2.836999999999989,1614,-118,8394,-18,47,-27,15,-160,120
2.8589999999999236,1496,-114,8452,6,141,2,21,-151,112
2.870999999999981,1446,-80,8174,-2,55,4,24,-156,119
2.8929999999999154,1252,-142,8450,-30,-63,10,14,-162,121
2.9049999999999727,1748,-92,8016,4,9,54,19,-159,109
2.927000000000021,1672,-32,7920,-10,-23,-48,20,-160,113
2.9389999999999645,1260,-140,8064,8,5,25,9,-164,112
2.9610000000000127,1614,-24,7784,16,84,74,13,-163,120
2.9829999999999472,1548,-88,7686,-8,158,29,19,-156,114
2.9950000000000045,1458,-42,7786,39,244,75,15,-155,108
3.016999999999939,1660,-22,7458,21,98,62,27,-163,120
3.0289999999999964,1704,-48,7672,3,125,44,30,-163,123
3.050999999999931,1798,10,7684,-46,59,10,20,-165,120
3.062999999999988,1638,-80,7802,-20,121,-2,27,-168,113
3.0849999999999227,1656,-88,7782,2,159,44,10,-163,108
3.1019979999999805,1880,-18,7638,-47,48,-20,27,-160,115
3.12399999999991,1308,-98,7774,-29,8,7,31,-159,114
3.1359999999999673,1586,-52,7792,-47,-69,87,24,-156,112
3.1580000000000155,1628,-164,7520,-69,-3,73,35,-155,118
3.169999999999959,1622,-146,6808,-194,-435,27,23,-160,115
3.1920000000000073,1174,-422,3594,-462,-3120,186,24,-159,117
3.203999999999951,552,-1302,1456,-1384,-6968,646,21,-162,114
3.225999999999999,74,-2154,1432,-1071,-14472,1148,7,-172,107
3.2479999999999336,-652,-1806,5328,-476,-6302,1535,-50,-174,105
3.259999999999991,-1008,-1316,5672,-1011,6158,3439,-67,-172,102
3.2819999999999254,2542,-98,3182,-1636,15795,3632,-64,-180,96
3.2939999999999827,2798,-456,-1154,-1753,16414,2654,-20,-191,99
3.3159999999999172,1120,-1594,-2980,-841,9598,1437,64,-175,80
3.3379999999999654,112,-4108,-1516,-570,4723,417,106,-184,62
3.349999999999909,-54,-6818,438,-946,5484,-504,104,-197,62
3.3719999999999573,-40,-8916,504,-1512,9175,-1349,111,-179,52
3.3840000000000146,-2,-9664,-1222,-2168,11775,-1842,125,-189,16
3.405999999999949,-418,-11196,-3660,-2836,10191,-2233,147,-202,-11
3.4180000000000064,-730,-12932,-4548,-2591,3328,-2885,146,-201,-49
3.439999999999941,-58,-14544,-2972,-2185,-3791,-3923,145,-207,-62
3.451999999999998,6,-17054,-1086,-2970,-5681,-5101,131,-226,-60
3.4739999999999327,-800,-20224,-1188,-4486,-4412,-5712,117,-241,-49
3.48599999999999,-1594,-23512,-2648,-6109,-4662,-5352,113,-250,-54
3.5079999999999245,-1440,-25972,-3502,-7441,-8258,-3965,84,-258,-69
3.5299999999999727,-188,-27110,-2518,-8145,-13204,-1826,75,-278,-98
3.5419999999999163,768,-27232,-44,-8192,-15537,739,69,-289,-106
3.5639999999999645,490,-26008,2772,-7289,-13390,2924,84,-278,-119
3.576000000000022,-400,-24134,4704,-5788,-7298,3903,110,-277,-130
3.5979999999999563,-966,-22558,5104,-4503,928,3673,150,-245,-136
3.6100000000000136,-454,-21414,3680,-3965,8789,2842,164,-232,-155
3.631999999999948,542,-20152,1082,-4163,13695,1686,169,-220,-184
3.6539999999999964,520,-19080,-1838,-4511,13935,278,150,-197,-217
3.66599999999994,-672,-18574,-4108,-4731,9606,-915,73,-178,-300
3.687999999999988,-1666,-18074,-4868,-5130,2853,-1398,36,-156,-315
3.699999999999932,-1548,-17310,-4214,-5845,-3754,-1063,24,-139,-322
3.72199999999998,-648,-16372,-2504,-6419,-8524,-134,21,-131,-334
3.7439999999999145,-14,-14998,-316,-6557,-10198,1011,78,-79,-331
3.755999999999972,-140,-13114,1696,-6195,-8391,1892,124,-56,-311
3.77800000000002,-504,-10860,2718,-5554,-4188,2255,140,-25,-279
3.7899999999999636,-798,-8920,2472,-4806,306,2162,156,-8,-273
3.812000000000012,-772,-7234,1400,-4075,3241,1862,142,32,-262
3.8239999999999554,-722,-6080,236,-3462,4052,1558,133,32,-267
3.8460000000000036,-710,-5136,-502,-3085,3383,1321,104,43,-282
3.8579999999999472,-672,-4406,-882,-2902,2065,1124,85,56,-271
3.8799999999999955,-664,-3766,-888,-2785,621,978,50,75,-253
3.891999999999939,-560,-3300,-660,-2684,-612,886,44,82,-264
3.9139999999999873,-490,-2956,-308,-2548,-1435,850,50,83,-251
3.935999999999922,-470,-2726,12,-2311,-1801,868,41,93,-239
3.947999999999979,-468,-2384,358,-1966,-1826,904,47,110,-228
3.9699999999999136,-304,-2012,574,-1443,-1711,875,49,110,-235
3.981999999999971,-148,-1740,788,-732,-1574,693,58,141,-210
4.004000000000019,92,-1472,912,191,-1497,310,66,145,-206
4.025999999999954,324,-1398,1146,1335,-1500,-337,100,148,-199
4.038000000000011,586,-1496,1306,2685,-1574,-1255,105,145,-206
4.059999999999945,790,-2008,1552,4273,-1630,-2530,121,159,-205
4.072000000000003,792,-3442,1766,6102,-1463,-4163,139,140,-209
4.093999999999937,454,-5996,1738,7985,-987,-5746,165,102,-216
4.1059999999999945,254,-9970,1674,10087,-498,-7285,182,74,-240
4.127999999999929,90,-16722,1766,12449,23,-8767,185,24,-252
4.139999999999986,-290,-30036,1870,14981,769,-10061,182,-29,-256
4.161999999999921,-1762,-32512,508,16920,1606,-10174,168,-163,-235
4.183999999999969,-4802,-32512,-3884,15956,931,-6973,147,-240,-203
4.195999999999913,-3212,-20272,-336,11032,2439,-2370,115,-287,-154
4.217999999999961,-162,-7342,1604,10025,8568,-59,88,-294,-108
4.230000000000018,3662,-8758,3394,10759,14771,1374,83,-294,-58
4.251999999999953,9500,-13876,4878,9888,26555,2366,87,-278,-26
4.26400000000001,21842,-7186,-1568,4246,32767,2271,102,-269,-41
4.2859999999999445,15082,-7438,-10680,3309,29855,-4928,124,-251,-72
4.307999999999993,4276,-25376,-10942,7405,5079,-11729,49,-272,-154
4.319999999999936,-3320,-32512,-17608,2968,-15166,-14961,13,-279,-135
4.3419999999999845,20442,-20388,-20374,-3417,-32768,-1533,-43,-265,-112
4.353999999999928,32763,-7110,-3568,776,-32768,5256,-31,-273,-131
4.375999999999976,28368,-1598,20418,1118,-32768,2264,90,-272,-39
4.38799999999992,1932,-1178,24736,-2943,4127,-753,48,-248,33
4.409999999999968,16904,-3398,7750,-2111,32767,-4456,33,-245,40
4.421999999999912,10064,-8030,-9564,3656,32767,-5034,60,-263,7
4.44399999999996,-3808,-8376,-15014,8357,3560,-490,64,-267,-68
4.466000000000008,1400,-6056,-5666,9181,-17795,30,64,-264,-44
4.477999999999952,2330,-9318,4246,8160,-16565,-3495,58,-270,4
4.5,-680,-13782,7036,5626,-1256,-6109,19,-243,28
4.511999999999944,-644,-13526,5022,5051,13790,-5027,-18,-218,72
4.533999999999992,3188,-9820,2734,5297,23931,-1079,2,-220,81
4.545999999999935,8942,-6564,1006,4192,30698,2469,41,-192,83
4.567999999999984,11140,-4990,-1792,2037,32154,4052,96,-182,62
4.589999999999918,7374,-3268,-6194,271,25001,2969,187,-155,-72
4.601999999999975,1514,-2702,-8212,161,9536,1494,162,-131,-131
4.62399999999991,1350,-1756,-4330,312,-3633,163,155,-134,-174
4.635999999999967,2202,-1110,1198,-14,-5340,-1913,159,-149,-186
4.6580000000000155,1616,-2192,1670,-1122,1202,-4498,161,-155,-161
4.669999999999959,694,-4868,-2896,-1654,2938,-6490,159,-162,-162
4.692000000000007,-36,-7958,-5352,-1742,-4680,-7647,150,-167,-162
4.713999999999942,1978,-11176,-3718,-2274,-14458,-8151,138,-194,-172
4.725999999999999,4252,-15366,-1184,-4118,-19353,-8715,144,-211,-142
4.747999999999934,4150,-21090,-812,-6959,-20115,-8844,130,-230,-109
4.759999999999991,3468,-25006,-1806,-9436,-22173,-6740,119,-249,-80
4.781999999999925,4994,-23230,-690,-9878,-26524,-1858,101,-258,-69
4.793999999999983,6532,-17924,3642,-7835,-26801,2730,84,-278,-59
4.815999999999917,3314,-12660,7926,-5106,-17391,4135,96,-278,-62
4.8279999999999745,138,-10680,8398,-2741,-3369,3040,101,-278,-50
4.849999999999909,-908,-11686,5258,-136,6156,1794,107,-269,-39
4.871999999999957,-1232,-14566,2772,2374,9789,2025,122,-269,-58
4.8840000000000146,-238,-17882,2852,3442,13324,3118,145,-265,-86
4.905999999999949,3036,-19396,3572,2505,20301,4076,136,-261,-87
4.918000000000006,7786,-16606,2260,115,27832,3584,162,-255,-121
4.939999999999941,8962,-13720,-1046,-1113,29260,1248,89,-230,-219
4.951999999999998,6042,-12830,-4480,-736,23874,-1494,26,-225,-255
4.973999999999933,2036,-11332,-6804,-65,13857,-3676,-53,-240,-255
4.995999999999981,-130,-10252,-7074,74,1631,-5119,-105,-234,-228
5.0079999999999245,94,-11022,-5884,-1128,-8628,-5845,-165,-206,-199
5.029999999999973,1516,-12900,-5048,-3664,-15790,-5630,-152,-194,-231
5.041999999999916,3962,-15202,-4202,-6360,-22090,-4075,-128,-174,-262
5.0639999999999645,6918,-15420,-1080,-7723,-26806,-1408,-65,-154,-306
5.076000000000022,6596,-12648,3908,-7405,-24690,831,112,-107,-295
5.102997999999957,2644,-9108,7340,-6092,-14713,1348,187,-89,-245
5.115000000000009,-406,-7160,6800,-4321,-2965,696,240,-51,-185
5.136999999999944,-1642,-6376,3840,-2242,4178,466,250,-34,-151
5.149000000000001,-1794,-5766,1428,-378,6051,1229,247,-17,-179
5.170999999999935,-1140,-5402,952,702,6423,2050,238,-24,-187
5.182999999999993,-220,-5020,834,962,7981,2303,222,-17,-222
5.204999999999927,318,-4464,-472,987,8620,2095,201,-5,-236
5.2169999999999845,106,-3998,-1974,1159,6056,1591,147,-5,-279
5.238999999999919,-550,-4212,-2134,1484,1650,1120,118,-7,-294
5.250999999999976,-988,-4676,-660,1919,-1281,958,115,-6,-309
5.272999999999911,-952,-4998,1170,2589,-1036,925,118,-20,-298
5.294999999999959,-650,-5484,1914,3489,1464,762,113,-22,-303
5.307000000000016,-392,-6520,1458,4560,3995,511,111,-40,-308
5.328999999999951,-308,-8004,376,5698,4996,297,99,-50,-315
5.341000000000008,-418,-9844,-418,6768,4462,74,81,-64,-331
5.362999999999943,-716,-12226,-878,7621,3316,-300,61,-120,-311
5.384999999999991,-1170,-15424,-1216,8084,2363,-655,33,-149,-310
5.3969999999999345,-1934,-18640,-1778,8009,1548,-699,20,-173,-304
5.418999999999983,-2676,-19818,-2322,7316,579,-94,27,-206,-278
5.430999999999926,-2696,-16838,-2264,6129,-147,1057,19,-250,-241
5.4529999999999745,-1758,-12882,-1462,4770,528,1994,19,-270,-210
5.464999999999918,-880,-12062,-1044,3003,3150,2098,14,-288,-196
5.486999999999966,-560,-13030,-2270,532,5527,1580,26,-288,-191
5.49899999999991,-1922,-15704,-4708,-1080,2344,1287,10,-287,-173
5.520999999999958,-2292,-16722,-5956,-1230,-7124,2223,24,-283,-186
5.5330000000000155,1288,-13610,-3508,292,-17491,3648,27,-284,-192
5.55499999999995,3518,-10248,2254,2132,-19109,2852,65,-280,-176
5.576999999999998,1404,-8714,6548,2808,-9382,401,122,-261,-113
5.588999999999942,658,-9608,5718,3289,3497,-1869,123,-270,-76
5.61099999999999,240,-12010,1524,4755,9717,-2851,127,-259,-70
5.622999999999934,-1064,-13864,-1454,6358,8512,-2136,101,-263,-78
5.644999999999982,-1830,-14196,-1778,6711,6109,-807,99,-263,-59
5.666999999999916,-1546,-12562,-1478,5915,5899,488,90,-274,-58
5.678999999999974,-880,-10102,-1922,4549,6596,1331,92,-258,-38
5.701000000000022,-776,-8360,-2608,3151,5925,1779,101,-250,-31
5.712999999999965,-1004,-7184,-2730,1918,4121,2079,107,-251,-34
5.735000000000014,-978,-6736,-2480,742,2385,2330,121,-243,-35
5.746999999999957,-724,-6576,-2194,-328,815,2327,118,-232,-43
5.7690000000000055,-438,-6364,-1718,-1168,-558,2033,131,-226,-39
5.780999999999949,-364,-6000,-1382,-1785,-1578,1635,142,-220,-52
5.802999999999997,-334,-5518,-1096,-2154,-2525,1236,147,-215,-52
5.824999999999932,-80,-5022,-724,-2267,-3471,812,141,-211,-49
5.836999999999989,8,-4646,-30,-2189,-3840,295,142,-205,-50
5.858999999999924,20,-4460,582,-1991,-3118,-316,156,-221,-41
5.870999999999981,-108,-4596,810,-1740,-1614,-1035,142,-212,-38
5.892999999999915,-310,-5210,618,-1419,-178,-1779,150,-210,-38
5.904999999999973,-628,-6220,208,-1129,840,-2418,135,-227,-38
5.927000000000021,-932,-7586,-332,-953,1309,-2881,136,-221,-41
5.9389999999999645,-1396,-8852,-830,-957,1198,-3114,129,-236,-53
5.961000000000013,-1868,-9496,-1322,-1223,541,-2993,121,-245,-47
5.982999999999947,-2044,-10364,-1852,-1792,-656,-2563,107,-249,-58
5.9950000000000045,-2098,-10954,-2028,-2553,-2292,-1903,106,-268,-64
6.016999999999939,-1964,-11512,-1586,-3359,-3810,-1152,92,-265,-71
6.028999999999996,-1762,-12226,-756,-4051,-4434,-396,84,-270,-76
6.050999999999931,-1666,-13002,300,-4465,-3741,231,92,-268,-78
6.072999999999979,-1640,-13288,1082,-4564,-1988,586,96,-273,-93
6.084999999999923,-1536,-13164,1538,-4383,386,606,89,-278,-100
6.106999999999971,-1234,-12724,1372,-4045,2735,281,98,-264,-123
6.1189999999999145,-978,-12224,780,-3634,4333,-360,96,-265,-138
6.140999999999963,-932,-12000,-150,-3232,4564,-1153,76,-264,-175
6.15300000000002,-1338,-12300,-968,-2911,3361,-1768,72,-260,-196
6.1749999999999545,-1674,-12552,-1432,-2787,1316,-2006,62,-255,-217
6.187000000000012,-1856,-12678,-1542,-2905,-908,-1887,65,-255,-222
6.208999999999946,-1862,-12742,-1350,-3173,-2783,-1506,49,-244,-242
6.2309999999999945,-1816,-12584,-836,-3455,-3939,-993,48,-237,-258
6.242999999999938,-1688,-12152,-128,-3660,-3980,-442,60,-225,-267
6.264999999999986,-1744,-11678,576,-3723,-2826,60,69,-216,-264
6.27699999999993,-1768,-10904,896,-3620,-996,415,88,-188,-273
6.298999999999978,-1578,-10224,878,-3376,831,567,100,-170,-288
6.310999999999922,-1440,-9178,448,-3016,1998,559,105,-165,-292
6.33299999999997,-1308,-8510,160,-2681,2405,438,104,-151,-303
6.344999999999914,-1252,-7656,-192,-2299,2033,366,85,-127,-314
6.366999999999962,-1202,-7066,-482,-2045,1367,231,66,-120,-326
6.38900000000001,-1100,-6550,-464,-1765,484,152,69,-115,-326
6.400999999999954,-992,-5896,-382,-1479,-394,75,66,-110,-333
6.423000000000002,-876,-5732,-178,-1161,-1150,-24,75,-103,-325
6.434999999999945,-886,-5518,-38,-840,-1565,-162,67,-86,-327
6.456999999999994,-806,-5346,0,-421,-1873,-273,65,-78,-327
6.468999999999937,-826,-5346,178,52,-2071,-486,85,-82,-331
6.4909999999999854,-874,-5770,520,551,-2069,-660,110,-94,-319
6.51299999999992,-636,-5444,402,1324,-2169,-868,112,-89,-321
6.524999999999977,-1360,-6424,386,1412,-1561,-1101,112,-99,-316
6.546999999999912,-1470,-7224,548,2302,-1939,-678,118,-101,-303
6.558999999999969,-1308,-7734,826,3095,-1488,-674,125,-124,-294
6.581000000000017,-1308,-8886,1020,3824,-43,-939,138,-129,-284
6.592999999999961,-1564,-10618,962,4556,1764,-1059,128,-144,-294
6.615000000000009,-1776,-12356,732,5306,3393,-678,121,-154,-272
6.636999999999944,-1680,-13708,446,5669,5315,36,102,-196,-266
6.649000000000001,-1242,-14462,148,5638,7430,1014,85,-216,-261
6.670999999999935,-558,-14224,-430,5172,9304,1960,75,-225,-258
6.682999999999993,4,-13476,-1360,4395,9995,2501,58,-250,-234
6.704999999999927,42,-12616,-2524,3431,8701,2559,23,-274,-218
6.7169999999999845,-612,-11986,-3544,2474,5264,2301,3,-256,-209
6.738999999999919,-1358,-11970,-4144,1605,355,2056,-8,-277,-206
6.750999999999976,-1328,-12104,-4270,938,-5358,2038,-9,-268,-191
6.772999999999911,-242,-11938,-3454,738,-11007,2011,31,-280,-181
6.794999999999959,1032,-11164,-1314,980,-14337,1598,48,-275,-179
6.807000000000016,958,-10350,1236,1300,-13321,654,71,-272,-163
6.828999999999951,-224,-10232,2744,1585,-8669,-418,92,-278,-143
6.841000000000008,-1422,-10524,2522,2029,-3328,-1033,105,-267,-82
6.862999999999943,-1950,-10650,1610,2696,557,-938,98,-269,-72
6.875,-1986,-10488,840,3237,3085,-332,106,-265,-64
6.8969999999999345,-1524,-10122,442,3437,5146,401,92,-273,-64
6.918999999999983,-902,-9380,-74,3359,6824,971,98,-269,-56
6.930999999999926,-618,-8726,-774,3117,7503,1380,101,-260,-52
6.9529999999999745,-552,-8240,-1298,2698,7039,1637,112,-256,-44
6.964999999999918,-626,-7938,-1356,2184,6094,1839,106,-250,-71
6.986999999999966,-614,-7422,-1282,1648,5314,1983,118,-243,-64
6.99899999999991,-438,-6714,-1458,1137,4415,1927,116,-243,-74
7.020999999999958,-346,-6076,-1594,684,3035,1584,133,-227,-86
7.0330000000000155,-328,-5624,-1356,348,1532,1089,125,-225,-90
7.05499999999995,-354,-5430,-898,133,548,587,138,-225,-98
7.076999999999998,-278,-5324,-656,-39,226,25,131,-234,-96
7.088999999999942,-262,-5470,-518,-201,235,-631,145,-230,-98
7.105998,-496,-5880,-532,-366,349,-1248,128,-232,-95
7.127999999999929,-658,-6348,-722,-535,338,-1714,135,-230,-90
7.139999999999986,-736,-7006,-1182,-758,-209,-2141,125,-227,-93
7.161999999999921,-904,-7624,-1434,-1135,-1191,-2536,111,-240,-95
7.183999999999969,-1172,-8516,-1566,-1655,-2389,-2722,111,-248,-107
7.195999999999913,-1348,-9212,-1566,-2223,-3714,-2599,104,-258,-100
7.217999999999961,-1250,-9744,-1382,-2745,-5115,-2292,106,-253,-100
7.230000000000018,-1102,-10172,-984,-3257,-6133,-1954,90,-272,-99
7.251999999999953,-1172,-10688,-230,-3672,-6205,-1588,88,-264,-118
7.26400000000001,-1374,-11126,504,-3818,-5299,-1147,88,-269,-108
7.2859999999999445,-1546,-11342,1006,-3682,-3663,-771,90,-267,-108
7.298000000000002,-1672,-11390,1392,-3374,-1425,-552,88,-274,-115
7.319999999999936,-1618,-11300,1594,-2919,1166,-522,92,-265,-124
7.3419999999999845,-1394,-11110,1228,-2519,3744,-725,90,-267,-161
7.353999999999928,-1168,-11126,356,-2191,5384,-1113,89,-265,-172
7.375999999999976,-1280,-11314,-616,-1949,5529,-1466,83,-259,-170
7.38799999999992,-1486,-11462,-1370,-1870,4435,-1676,59,-249,-199
7.409999999999968,-1654,-11528,-1652,-2003,2682,-1729,27,-249,-211
7.421999999999912,-1786,-11498,-1690,-2291,838,-1636,16,-250,-224
7.44399999999996,-1688,-11358,-1514,-2621,-828,-1498,18,-256,-237
7.466000000000008,-1566,-11190,-1102,-2935,-2057,-1388,2,-240,-246
7.477999999999952,-1468,-10940,-614,-3161,-2676,-1249,9,-232,-258
7.5,-1436,-10594,-268,-3258,-2755,-1088,18,-226,-264
7.511999999999944,-1476,-10092,2,-3231,-2474,-923,20,-213,-278
7.533999999999992,-1432,-9554,156,-3083,-2041,-754,31,-199,-291
7.545999999999935,-1448,-8916,228,-2836,-1607,-616,36,-184,-296
7.567999999999984,-1380,-8292,200,-2534,-1222,-513,43,-169,-303
7.589999999999918,-1412,-7724,176,-2192,-904,-430,50,-151,-306
7.601999999999975,-1418,-7248,144,-1836,-703,-338,54,-158,-307
7.62399999999991,-1324,-6868,86,-1479,-620,-255,60,-139,-317
7.635999999999967,-1296,-6618,70,-1107,-635,-166,49,-132,-319
7.6580000000000155,-1284,-6362,52,-726,-677,-70,62,-139,-320
7.669999999999959,-1250,-6188,158,-329,-685,29,66,-132,-321
7.692000000000007,-1236,-6194,242,111,-594,100,70,-129,-313
7.703999999999951,-1204,-6280,300,589,-382,145,73,-135,-316
7.725999999999999,-1226,-6442,420,1134,-45,169,82,-136,-310
7.747999999999934,-1302,-6838,440,1678,500,177,78,-132,-311
7.759999999999991,-1316,-7336,380,2211,1130,228,71,-135,-307
7.781999999999925,-1336,-7932,160,2728,1615,314,79,-154,-303
7.793999999999983,-1328,-8720,-2,3159,1972,402,64,-165,-307
7.815999999999917,-1428,-9484,-284,3499,2224,561,61,-173,-297
7.837999999999965,-1472,-10284,-402,3740,2462,786,49,-193,-288
7.849999999999909,-1486,-10906,-528,3832,2719,1032,37,-201,-280
7.871999999999957,-1458,-11392,-680,3759,2987,1289,37,-211,-280
7.8840000000000146,-1492,-11590,-954,3525,3151,1550,24,-235,-265
7.905999999999949,-1428,-11630,-1256,3165,3003,1749,7,-250,-236
7.918000000000006,-1368,-11416,-1676,2694,2289,1874,10,-249,-233
7.939999999999941,-1394,-11358,-1958,2233,926,1897,8,-264,-216
7.951999999999998,-1408,-11226,-2108,1803,-983,1855,14,-268,-207
7.973999999999933,-1424,-11052,-2020,1515,-3184,1808,32,-274,-192
7.995999999999981,-1160,-10930,-1448,1437,-5061,1710,42,-277,-190
8.007999999999925,-974,-10474,-648,1532,-5853,1480,49,-272,-178
8.029999999999973,-966,-10288,260,1742,-5197,1122,67,-273,-172
8.041999999999916,-1172,-10156,726,2029,-3450,739,84,-278,-145
8.063999999999965,-1400,-10034,802,2339,-1328,522,90,-272,-120
8.076000000000022,-1566,-10008,524,2579,611,492,95,-264,-125
8.097999999999956,-1534,-9660,76,2740,2095,678,105,-272,-113
8.110000000000014,-1314,-9466,-338,2683,3110,916,90,-264,-99
8.131999999999948,-1246,-9038,-740,2498,3460,1098,95,-261,-101
8.153999999999996,-1210,-8546,-1006,2248,3343,1298,88,-254,-82
8.16599999999994,-1076,-8262,-1070,1896,3068,1449,105,-261,-87
8.187999999999988,-982,-7912,-1124,1514,2625,1484,100,-256,-84
8.199999999999932,-890,-7340,-1028,1149,2197,1435,110,-259,-82
8.22199999999998,-794,-6938,-964,803,1889,1309,106,-248,-98
8.233999999999924,-630,-6720,-940,507,1508,1043,115,-256,-94
8.255999999999972,-644,-6266,-960,288,1000,697,117,-239,-96
8.27800000000002,-602,-6182,-838,57,656,343,122,-249,-101
8.289999999999964,-598,-6174,-826,-149,310,-58,123,-235,-98
8.312000000000012,-682,-6128,-826,-309,-161,-467,117,-229,-92
8.323999999999955,-800,-6492,-754,-529,-453,-817,119,-241,-101
8.346000000000004,-840,-6824,-798,-702,-774,-1136,119,-246,-96
8.357999999999947,-964,-7114,-694,-899,-982,-1409,116,-250,-93
8.379999999999995,-1004,-7496,-736,-1180,-1034,-1623,102,-236,-106
8.391999999999939,-1188,-8010,-814,-1438,-1253,-1774,101,-250,-100
8.413999999999987,-1292,-8526,-904,-1732,-1628,-1831,99,-250,-105
8.435999999999922,-1446,-8954,-898,-2064,-2014,-1757,92,-268,-102
8.447999999999979,-1538,-9440,-768,-2355,-2373,-1611,89,-265,-117
8.469999999999914,-1484,-9748,-454,-2581,-2532,-1421,92,-270,-109
8.481999999999971,-1464,-9908,-110,-2700,-2255,-1266,90,-259,-120
8.504000000000019,-1518,-10110,200,-2729,-1507,-1188,82,-270,-141
8.515999999999963,-1542,-10292,364,-2643,-497,-1182,84,-263,-136
8.538000000000011,-1548,-10472,282,-2491,550,-1209,77,-258,-148
8.559999999999945,-1576,-10528,120,-2327,1365,-1284,71,-267,-170
8.572000000000003,-1546,-10554,-166,-2176,1784,-1367,77,-278,-172
8.593999999999937,-1596,-10662,-446,-2090,1818,-1435,67,-260,-174
8.605999999999995,-1628,-10674,-682,-2071,1494,-1466,53,-260,-198
8.627999999999929,-1722,-10716,-846,-2120,937,-1461,43,-263,-207
8.639999999999986,-1674,-10702,-884,-2229,323,-1405,26,-253,-212
8.66199999999992,-1662,-10532,-838,-2358,-282,-1285,29,-260,-215
8.683999999999969,-1610,-10406,-702,-2457,-793,-1152,24,-248,-246
8.695999999999913,-1646,-10096,-512,-2540,-1054,-1033,23,-226,-249
8.717999999999961,-1506,-9784,-312,-2544,-1153,-911,21,-243,-251
8.730000000000018,-1502,-9450,-200,-2472,-1105,-820,30,-224,-261
8.751999999999953,-1456,-9078,-140,-2364,-933,-730,30,-216,-283
8.76400000000001,-1458,-8638,-126,-2202,-819,-630,30,-203,-288
8.785999999999945,-1496,-8296,-64,-1984,-807,-509,30,-198,-297
8.807999999999993,-1360,-7888,-48,-1748,-811,-406,32,-180,-292
8.819999999999936,-1360,-7448,6,-1481,-785,-322,46,-177,-298
8.841999999999985,-1332,-7200,-14,-1190,-719,-256,41,-174,-298
8.853999999999928,-1334,-7020,8,-894,-621,-184,44,-173,-307
8.875999999999976,-1346,-6846,30,-582,-602,-93,49,-163,-304
8.88799999999992,-1384,-6802,34,-235,-619,1,49,-165,-319
8.909999999999968,-1314,-6812,72,130,-543,106,52,-155,-311
8.921999999999912,-1294,-6740,114,536,-402,161,56,-158,-314
8.94399999999996,-1290,-6972,294,971,-76,177,50,-162,-310
8.966000000000008,-1374,-7264,254,1375,432,222,60,-169,-296
8.977999999999952,-1346,-7624,84,1791,793,312,56,-173,-292
9.0,-1458,-8144,28,2165,1102,416,53,-177,-303
9.011999999999944,-1464,-8618,-158,2468,1400,551,54,-186,-297
9.033999999999992,-1468,-9102,-228,2728,1613,713,48,-194,-286
9.045999999999935,-1462,-9638,-370,2912,1832,874,42,-201,-278
9.067999999999984,-1506,-10060,-454,2984,2091,1052,25,-216,-280
9.089999999999918,-1478,-10340,-608,2964,2255,1248,30,-231,-254
9.106997999999976,-1422,-10630,-844,2848,2227,1422,21,-243,-248
9.118999999999915,-1444,-10650,-1062,2633,2000,1563,10,-254,-233
9.140999999999963,-1390,-10476,-1276,2379,1459,1662,25,-259,-228
9.15300000000002,-1328,-10562,-1454,2103,592,1672,12,-265,-219
9.174999999999955,-1380,-10404,-1526,1841,-530,1604,25,-272,-202
9.187000000000012,-1360,-10310,-1524,1655,-1882,1541,36,-273,-196
9.208999999999946,-1346,-10308,-1166,1553,-3006,1448,47,-279,-197
9.221284999999966,-1248,-10030,-702,1550,-3526,1317,58,-270,-184
9.242999999999938,-1216,-9800,-234,1616,-3280,1131,67,-273,-164
9.264999999999986,-1212,-9552,64,1712,-2390,942,71,-277,-154
9.27699999999993,-1354,-9514,102,1838,-1254,796,83,-269,-137
9.298999999999978,-1428,-9390,52,1952,-153,770,89,-275,-141
9.310999999999922,-1416,-9200,-98,1998,803,830,93,-282,-123
9.33299999999997,-1334,-8884,-352,1967,1509,905,95,-277,-123
9.344999999999914,-1268,-8570,-498,1865,1933,986,92,-258,-112
9.366999999999962,-1180,-8300,-702,1721,2091,1054,96,-260,-100
9.38900000000001,-1146,-7964,-796,1517,2054,1093,98,-279,-106
9.400999999999954,-1052,-7730,-878,1272,1940,1087,116,-255,-107
9.423000000000002,-998,-7444,-868,1015,1789,1029,100,-264,-101
9.434999999999945,-890,-7192,-802,766,1636,925,106,-260,-109
9.456999999999994,-804,-6902,-866,526,1444,747,106,-253,-105
9.468999999999937,-772,-6780,-860,308,1165,491,107,-251,-101
9.490999999999985,-770,-6656,-828,89,856,203,110,-254,-108
9.51299999999992,-746,-6618,-828,-113,489,-104,106,-253,-100
9.524999999999977,-780,-6678,-872,-303,57,-412,111,-258,-107
9.546999999999912,-814,-6878,-828,-507,-354,-711,107,-254,-111
9.558999999999969,-904,-7160,-766,-715,-708,-986,104,-248,-109
9.581000000000017,-1066,-7502,-796,-948,-958,-1199,106,-255,-112
9.592999999999961,-1102,-7782,-826,-1178,-1185,-1347,99,-268,-105
9.615000000000009,-1176,-8150,-810,-1419,-1460,-1475,90,-256,-111
9.626999999999953,-1328,-8440,-770,-1686,-1716,-1529,102,-259,-113
9.649000000000001,-1400,-8874,-674,-1934,-1868,-1478,92,-273,-112
9.670999999999935,-1428,-9206,-604,-2121,-2014,-1378,87,-278,-131
9.682999999999993,-1502,-9296,-390,-2243,-2028,-1276,89,-265,-129
9.704999999999927,-1442,-9542,-50,-2325,-1660,-1177,84,-270,-133
9.716999999999985,-1470,-9724,150,-2318,-985,-1120,82,-265,-143
9.738999999999919,-1564,-9782,130,-2233,-168,-1087,77,-265,-157
9.760999999999967,-1506,-9872,104,-2126,601,-1093,82,-263,-176
9.77299999999991,-1530,-9954,-60,-1998,1164,-1124,72,-265,-172
9.794999999999959,-1536,-9984,-232,-1889,1470,-1179,70,-273,-179
9.807000000000016,-1526,-9956,-374,-1830,1521,-1215,56,-259,-202
9.82899999999995,-1572,-10018,-650,-1825,1298,-1247,50,-263,-203
9.841000000000008,-1634,-9970,-768,-1874,844,-1246,48,-255,-207
9.862999999999943,-1606,-9978,-782,-1939,229,-1172,38,-268,-217
9.875290999999947,-1592,-9866,-760,-2015,-350,-1078,31,-258,-236
9.896999999999935,-1542,-9648,-552,-2088,-697,-1006,42,-249,-242
9.918999999999983,-1516,-9428,-452,-2127,-871,-931,30,-249,-245
9.930999999999926,-1480,-9214,-322,-2110,-926,-836,16,-230,-258
9.952999999999975,-1444,-8988,-282,-2054,-933,-747,23,-224,-271
9.964999999999918,-1530,-8634,-246,-1950,-973,-642,35,-211,-273
9.986999999999966,-1436,-8332,-216,-1790,-1030,-537,16,-210,-282
9.99899999999991,-1398,-8086,-90,-1598,-989,-442,21,-207,-284
10.020999999999958,-1408,-7718,-50,-1386,-841,-359,32,-201,-283
10.033000000000015,-1302,-7426,0,-1135,-718,-298,27,-191,-297
10.05499999999995,-1388,-7324,-32,-860,-633,-222,53,-187,-303
10.076999999999998,-1376,-7216,-12,-582,-554,-129,35,-193,-290
10.088999999999942,-1340,-7114,24,-270,-522,-36,46,-184,-294
10.11099999999999,-1368,-7078,60,48,-444,40,53,-177,-298
10.122999999999934,-1362,-7198,114,371,-230,124,54,-178,-304
10.144999999999982,-1370,-7288,102,726,9,198,55,-184,-294
10.156999999999925,-1350,-7484,116,1080,333,259,47,-180,-295
10.178999999999974,-1378,-7732,84,1416,738,324,54,-188,-290
10.201000000000022,-1390,-8034,-2,1719,1103,407,48,-197,-282
10.212999999999965,-1492,-8372,-132,1970,1389,549,52,-196,-283
10.235000000000014,-1434,-8788,-276,2163,1558,704,42,-203,-280
10.246999999999957,-1446,-9060,-442,2298,1620,856,31,-220,-277
10.269000000000005,-1390,-9326,-476,2375,1631,987,31,-227,-260
10.280999999999949,-1456,-9556,-614,2387,1612,1095,26,-232,-267
10.302999999999997,-1420,-9754,-794,2330,1486,1208,29,-245,-248
10.324999999999932,-1438,-9878,-920,2234,1214,1289,29,-258,-236
10.336999999999989,-1422,-9904,-1004,2093,784,1349,27,-259,-235
10.358999999999924,-1392,-9868,-1066,1960,194,1365,24,-255,-222
10.370999999999981,-1340,-9874,-1074,1820,-446,1329,39,-267,-218
10.392999999999915,-1368,-9842,-1056,1682,-1029,1265,42,-277,-202
10.404999999999973,-1360,-9750,-968,1579,-1537,1224,42,-277,-197
10.427000000000021,-1344,-9618,-804,1517,-1917,1168,50,-273,-191
10.448999999999955,-1344,-9496,-526,1513,-1986,1092,58,-273,-174
10.461000000000013,-1330,-9330,-306,1528,-1650,1005,66,-264,-173
10.482999999999947,-1330,-9136,-180,1557,-1028,928,82,-260,-162
10.495000000000005,-1316,-9012,-206,1594,-371,870,73,-274,-156
10.516999999999939,-1314,-8866,-314,1613,210,847,85,-277,-135
10.528999999999996,-1322,-8626,-378,1589,699,861,88,-267,-135
10.55099999999993,-1214,-8402,-460,1517,1078,890,87,-263,-133
10.562999999999988,-1216,-8218,-588,1405,1267,897,94,-268,-121
10.584999999999923,-1134,-7970,-694,1271,1300,888,96,-265,-126
10.606999999999971,-1138,-7770,-720,1089,1278,851,99,-265,-109
10.618999999999915,-1050,-7586,-740,906,1228,789,89,-255,-112
10.640999999999963,-1010,-7380,-706,715,1187,705,100,-272,-111
10.65300000000002,-960,-7190,-778,519,1126,571,111,-260,-119
10.674999999999955,-910,-7058,-792,328,973,373,107,-267,-111
10.687000000000012,-860,-7016,-726,145,764,150,115,-259,-113
10.708999999999946,-876,-6982,-848,-51,493,-87,105,-256,-113
10.721000000000004,-918,-7046,-906,-249,111,-321,102,-261,-108
10.742999999999938,-944,-7166,-854,-446,-305,-531,101,-250,-109
10.764999999999986,-984,-7344,-730,-652,-641,-718,102,-264,-113
10.77699999999993,-1022,-7572,-684,-862,-843,-882,93,-264,-111
10.798999999999978,-1102,-7794,-696,-1068,-967,-1031,94,-258,-131
10.810999999999922,-1150,-8028,-704,-1269,-1121,-1148,87,-265,-129
10.83299999999997,-1268,-8340,-694,-1462,-1269,-1215,95,-259,-115
10.844999999999914,-1318,-8568,-618,-1642,-1379,-1221,81,-267,-135
10.866999999999962,-1336,-8768,-520,-1787,-1445,-1189,82,-273,-131
10.88900000000001,-1392,-8952,-370,-1884,-1393,-1146,84,-258,-133
10.900999999999954,-1392,-9064,-190,-1939,-1159,-1112,88,-261,-144
10.923000000000002,-1430,-9240,-68,-1952,-739,-1079,84,-273,-145
10.934999999999945,-1478,-9358,-116,-1920,-245,-1061,71,-277,-163
10.956999999999994,-1476,-9460,-88,-1859,212,-1032,71,-264,-166
10.968999999999937,-1578,-9504,-148,-1790,598,-1021,67,-270,-174
10.990999999999985,-1518,-9454,-230,-1740,856,-1016,72,-258,-179
11.01299999999992,-1560,-9556,-392,-1702,968,-1021,53,-255,-186
11.024999999999977,-1506,-9544,-518,-1688,905,-1010,50,-263,-198
11.046999999999912,-1512,-9524,-530,-1693,691,-996,46,-258,-205
11.058999999999969,-1594,-9464,-572,-1718,383,-971,44,-264,-225
11.081000000000017,-1550,-9342,-612,-1748,45,-917,44,-254,-221
11.092999999999961,-1522,-9242,-544,-1767,-275,-864,48,-258,-229
11.109998000000019,-1486,-9056,-468,-1769,-512,-811,35,-249,-245
11.131999999999948,-1496,-8888,-362,-1755,-663,-748,29,-250,-246
11.153999999999996,-1458,-8654,-300,-1697,-770,-669,38,-232,-262
11.16599999999994,-1424,-8474,-264,-1604,-833,-602,30,-221,-259
11.187999999999988,-1434,-8240,-208,-1482,-859,-526,30,-213,-271
11.199999999999932,-1344,-8042,-132,-1334,-847,-450,31,-217,-262
11.22199999999998,-1434,-7914,-140,-1164,-818,-359,41,-207,-279
11.233999999999924,-1430,-7716,-60,-970,-771,-261,42,-206,-278
11.255999999999972,-1392,-7594,-26,-736,-712,-167,44,-196,-288
11.268284999999992,-1434,-7410,-26,-490,-603,-89,48,-202,-284
11.289999999999964,-1366,-7396,24,-219,-421,-5,35,-193,-283
11.312000000000012,-1416,-7370,64,71,-207,70,55,-205,-289
11.323999999999955,-1420,-7356,28,356,17,133,47,-191,-285
11.346000000000004,-1406,-7494,28,652,247,212,50,-189,-279
11.357999999999947,-1358,-7626,52,942,499,301,52,-208,-285
11.379999999999995,-1414,-7832,-62,1203,770,375,38,-212,-277
11.391999999999939,-1412,-8108,-114,1441,1001,459,56,-216,-283
11.413999999999987,-1394,-8310,-250,1646,1145,559,42,-213,-283
11.435999999999922,-1456,-8502,-308,1809,1233,653,36,-222,-262
11.447999999999979,-1446,-8834,-402,1913,1262,754,36,-227,-255
11.469999999999914,-1456,-9026,-534,1981,1244,847,37,-239,-249
11.481999999999971,-1374,-9150,-588,1986,1172,945,26,-232,-246
11.504000000000019,-1412,-9310,-726,1957,1001,1025,33,-248,-241
11.515999999999963,-1444,-9378,-812,1899,751,1084,36,-250,-231
11.538000000000011,-1380,-9386,-870,1807,439,1119,25,-264,-225
11.559999999999945,-1428,-9466,-876,1705,60,1144,33,-255,-217
11.572000000000003,-1408,-9428,-918,1608,-344,1152,32,-264,-206
11.593999999999937,-1394,-9424,-882,1522,-710,1129,43,-275,-203
11.605999999999995,-1338,-9306,-726,1454,-967,1089,46,-268,-205
11.627999999999929,-1356,-9244,-584,1420,-1077,1044,65,-268,-198
11.639999999999986,-1366,-9126,-476,1403,-1035,991,62,-273,-179
11.66199999999992,-1326,-8994,-416,1405,-804,940,71,-282,-161
11.673999999999978,-1316,-8856,-384,1397,-449,890,67,-270,-169
11.695999999999913,-1306,-8760,-378,1395,-105,851,73,-269,-158
11.717999999999961,-1310,-8584,-434,1368,198,829,82,-265,-157
11.730000000000018,-1320,-8442,-492,1315,457,813,78,-269,-137
11.751999999999953,-1224,-8274,-522,1241,682,808,82,-270,-145
11.76400000000001,-1172,-8072,-588,1141,852,780,75,-270,-131
11.785999999999945,-1146,-7918,-610,1018,945,734,84,-263,-119
11.798000000000002,-1134,-7764,-696,874,965,664,85,-259,-125
11.819999999999936,-1066,-7582,-702,724,919,584,84,-263,-117
11.841999999999985,-1022,-7506,-676,553,815,482,92,-275,-126
11.853999999999928,-990,-7340,-720,389,659,355,87,-268,-112
11.875999999999976,-978,-7298,-708,225,477,203,93,-269,-125
11.88799999999992,-964,-7238,-714,59,289,31,101,-273,-124
11.909999999999968,-960,-7306,-706,-107,82,-146,89,-258,-124
11.921999999999912,-994,-7294,-724,-276,-109,-319,100,-264,-118
11.94399999999996,-1040,-7474,-736,-439,-294,-486,93,-269,-123
11.966000000000008,-1092,-7560,-660,-604,-448,-627,94,-270,-121
11.977999999999952,-1120,-7712,-622,-778,-538,-741,94,-265,-114
12.0,-1156,-7856,-650,-948,-628,-849,84,-260,-136
12.011999999999944,-1192,-8028,-614,-1105,-738,-930,82,-275,-136
12.033999999999992,-1232,-8240,-616,-1262,-844,-986,77,-263,-136
12.045999999999935,-1322,-8426,-544,-1399,-933,-1017,83,-267,-139
12.067999999999984,-1366,-8556,-448,-1512,-960,-1022,75,-273,-150
12.079999999999927,-1374,-8712,-424,-1588,-905,-1016,78,-272,-151
12.101999999999975,-1330,-8848,-330,-1629,-739,-1020,89,-273,-148
12.12399999999991,-1398,-8920,-230,-1649,-487,-1020,77,-275,-153
12.135999999999967,-1446,-9012,-232,-1643,-201,-1015,67,-278,-167
12.158000000000015,-1474,-9142,-234,-1620,52,-994,61,-269,-175
12.169999999999959,-1498,-9160,-300,-1598,231,-971,65,-270,-176
12.192000000000007,-1518,-9188,-274,-1576,340,-946,62,-258,-174
12.213999999999942,-1518,-9194,-344,-1560,391,-920,66,-277,-194
12.225999999999999,-1570,-9188,-402,-1549,380,-898,50,-258,-203
12.247999999999934,-1492,-9168,-418,-1545,297,-860,52,-261,-202
12.259999999999991,-1504,-9068,-434,-1539,173,-829,36,-265,-215
12.281999999999925,-1494,-9020,-462,-1527,18,-797,43,-260,-229
12.293999999999983,-1462,-8832,-450,-1518,-146,-747,43,-258,-229
12.315999999999917,-1466,-8716,-374,-1485,-318,-690,37,-256,-237
12.327999999999975,-1440,-8572,-388,-1441,-466,-631,33,-250,-234
12.349999999999909,-1486,-8452,-354,-1375,-564,-580,50,-245,-258
12.371999999999957,-1448,-8314,-302,-1288,-621,-508,37,-231,-264
12.384000000000015,-1434,-8130,-232,-1184,-652,-437,32,-229,-264
12.405999999999949,-1424,-8016,-212,-1044,-668,-342,31,-227,-260
12.418000000000006,-1418,-7904,-160,-889,-660,-266,39,-221,-271
12.43999999999994,-1400,-7742,-78,-703,-578,-196,46,-217,-270
12.451999999999998,-1384,-7636,-68,-508,-453,-128,36,-217,-272
12.473999999999933,-1414,-7592,-64,-294,-312,-52,36,-215,-282
12.48599999999999,-1448,-7490,-54,-78,-196,23,46,-215,-277
12.507999999999925,-1394,-7560,-58,158,-97,94,53,-225,-274
12.529999999999973,-1380,-7654,-40,384,28,167,33,-215,-279
12.541999999999916,-1376,-7682,-74,619,185,235,41,-212,-277
12.563999999999965,-1418,-7800,-52,841,375,291,47,-218,-266
12.576000000000022,-1424,-7988,-146,1047,572,389,27,-224,-264
12.597999999999956,-1444,-8136,-202,1235,721,480,42,-216,-268
12.610000000000014,-1416,-8276,-258,1392,859,558,46,-227,-262
12.631999999999948,-1476,-8466,-264,1525,987,644,44,-234,-247
12.653999999999996,-1454,-8676,-398,1616,1093,741,46,-235,-251
12.66599999999994,-1394,-8788,-522,1671,1120,822,42,-244,-245
12.687999999999988,-1392,-8878,-592,1687,1037,884,43,-245,-246
12.699999999999932,-1448,-8992,-656,1674,864,941,37,-251,-225
12.72199999999998,-1368,-9058,-752,1626,623,988,37,-259,-228
12.733999999999924,-1388,-9096,-756,1560,326,1005,37,-261,-213
12.755999999999972,-1372,-9088,-818,1495,14,1015,46,-270,-217
12.767999999999915,-1354,-9062,-762,1430,-290,998,47,-267,-194
12.789999999999964,-1362,-9064,-692,1353,-532,969,47,-264,-206
12.812000000000012,-1372,-9026,-692,1292,-679,948,50,-263,-193
12.823999999999955,-1384,-8962,-582,1246,-752,935,50,-268,-193
12.846000000000004,-1334,-8798,-512,1217,-735,898,62,-270,-179
12.857999999999947,-1256,-8754,-474,1196,-562,851,53,-273,-169
12.879999999999995,-1264,-8580,-426,1178,-276,801,77,-270,-167
12.891999999999939,-1302,-8482,-462,1147,8,763,75,-273,-157
12.913999999999987,-1290,-8366,-484,1116,192,731,83,-272,-144
12.935999999999922,-1246,-8246,-510,1067,310,707,79,-265,-148
12.947999999999979,-1208,-8090,-584,995,441,668,79,-273,-143
12.969999999999914,-1148,-7912,-534,909,582,628,84,-270,-143
12.981999999999971,-1126,-7854,-616,806,680,567,83,-269,-151
13.004000000000019,-1148,-7784,-612,687,721,498,88,-274,-142
13.015999999999963,-1072,-7652,-678,553,720,415,102,-274,-125
13.038000000000011,-1076,-7524,-660,427,670,325,90,-267,-132
13.059999999999945,-1066,-7486,-676,278,549,212,73,-267,-139
13.072000000000003,-1054,-7462,-764,118,383,73,84,-263,-138
13.093999999999937,-1066,-7456,-728,-32,190,-61,92,-265,-121
13.110997999999995,-1032,-7458,-744,-186,-27,-196,90,-261,-137
13.122999999999934,-1088,-7510,-714,-335,-235,-334,89,-273,-129
13.144999999999982,-1070,-7604,-648,-486,-379,-461,88,-272,-142
13.156999999999925,-1128,-7678,-580,-624,-456,-576,94,-265,-143
13.178999999999974,-1132,-7814,-608,-764,-504,-694,95,-267,-127
13.201000000000022,-1198,-7974,-592,-904,-563,-784,90,-264,-139
13.212999999999965,-1258,-8148,-612,-1033,-635,-846,83,-261,-144
13.235000000000014,-1276,-8222,-578,-1153,-743,-879,79,-270,-150
13.246999999999957,-1330,-8364,-498,-1259,-809,-896,73,-274,-144
13.269000000000005,-1380,-8466,-416,-1337,-798,-907,71,-267,-137
13.280999999999949,-1362,-8588,-392,-1400,-700,-912,70,-270,-160
13.302999999999997,-1402,-8670,-290,-1434,-518,-900,71,-272,-161
13.324999999999932,-1434,-8826,-226,-1435,-308,-889,70,-263,-172
13.336999999999989,-1426,-8768,-262,-1419,-78,-880,72,-268,-172
13.358999999999924,-1430,-8892,-262,-1402,142,-879,72,-268,-174
13.370999999999981,-1432,-8888,-302,-1374,313,-872,65,-273,-193
13.392999999999915,-1484,-8850,-380,-1359,381,-863,54,-264,-187
13.404999999999973,-1478,-8894,-450,-1346,331,-841,53,-273,-196
13.427000000000021,-1408,-8870,-516,-1342,224,-811,47,-267,-206
13.438999999999965,-1448,-8832,-462,-1338,64,-764,42,-264,-206
13.461000000000013,-1514,-8738,-482,-1336,-100,-719,50,-260,-224
13.482999999999947,-1514,-8734,-418,-1327,-221,-679,44,-251,-225
13.495000000000005,-1502,-8604,-402,-1298,-307,-632,46,-243,-227
13.516999999999939,-1462,-8548,-352,-1254,-356,-577,48,-243,-239
13.528999999999996,-1460,-8360,-334,-1199,-399,-511,39,-244,-245
13.55099999999993,-1472,-8266,-278,-1112,-443,-452,27,-236,-247
13.562999999999988,-1396,-8130,-242,-1014,-463,-397,27,-234,-256
13.584999999999923,-1396,-8048,-288,-899,-453,-337,42,-236,-254
13.606999999999971,-1420,-7948,-208,-767,-451,-272,39,-234,-256
13.618999999999915,-1394,-7846,-206,-621,-439,-203,37,-236,-256
13.640999999999963,-1410,-7768,-176,-460,-416,-135,44,-234,-259
13.65300000000002,-1410,-7758,-124,-286,-372,-67,46,-232,-277
13.674999999999955,-1406,-7732,-96,-107,-271,3,42,-226,-261
13.687000000000012,-1466,-7702,-112,83,-136,70,50,-227,-265
13.708999999999946,-1384,-7762,-142,281,16,148,42,-224,-261
13.721000000000004,-1422,-7730,-90,480,187,214,50,-225,-262
13.742999999999938,-1422,-7866,-130,661,367,286,36,-222,-260
13.764999999999986,-1394,-7920,-198,833,524,361,47,-229,-249
13.77699999999993,-1394,-8050,-250,989,637,440,46,-230,-260
13.798999999999978,-1406,-8208,-284,1123,709,501,59,-239,-256
13.810999999999922,-1438,-8356,-324,1241,771,575,52,-244,-249
13.83299999999997,-1392,-8450,-430,1321,814,644,38,-243,-246
13.855000000000018,-1424,-8550,-494,1380,809,718,43,-258,-239
13.866999999999962,-1374,-8690,-564,1412,737,777,37,-254,-233
13.88900000000001,-1388,-8714,-588,1423,627,811,39,-246,-221
13.900999999999954,-1340,-8798,-566,1405,499,840,43,-263,-210
13.923000000000002,-1350,-8872,-670,1378,350,864,41,-258,-212
13.934999999999945,-1440,-8852,-660,1329,159,880,38,-258,-215
13.956999999999994,-1324,-8788,-708,1284,-43,876,44,-267,-206
13.968999999999937,-1364,-8750,-654,1244,-224,861,54,-261,-202
13.990999999999985,-1336,-8728,-676,1183,-326,826,54,-272,-187
14.01299999999992,-1416,-8744,-574,1116,-384,818,64,-269,-192
14.024999999999977,-1370,-8658,-578,1076,-465,835,66,-264,-192
14.046999999999912,-1260,-8542,-512,1051,-467,815,70,-270,-174
14.058999999999969,-1268,-8418,-430,1025,-296,767,70,-283,-172
14.081000000000017,-1230,-8324,-402,1003,7,710,77,-268,-155
14.092999999999961,-1254,-8298,-430,960,285,662,69,-264,-168
14.115000000000009,-1246,-8212,-530,914,407,637,76,-261,-147
14.126999999999953,-1232,-8120,-582,857,421,612,83,-267,-161
14.149000000000001,-1140,-7974,-546,783,423,568,83,-264,-149
14.170999999999935,-1188,-7810,-546,692,448,492,78,-269,-156
14.182999999999993,-1170,-7744,-582,587,481,410,85,-267,-144
14.204999999999927,-1126,-7732,-632,479,462,327,82,-273,-138
14.216999999999985,-1082,-7684,-638,363,392,250,78,-264,-151
14.238999999999919,-1120,-7628,-688,236,310,161,88,-259,-137
14.250999999999976,-1108,-7630,-688,100,215,55,90,-264,-142
14.27299999999991,-1052,-7594,-688,-29,91,-54,90,-261,-142
14.294999999999959,-1046,-7558,-662,-167,-50,-175,90,-264,-135
14.307000000000016,-1112,-7650,-662,-295,-195,-286,88,-259,-142
14.32899999999995,-1128,-7688,-648,-418,-309,-387,82,-263,-143
14.341000000000008,-1184,-7766,-608,-539,-389,-486,78,-261,-147
14.362999999999943,-1164,-7830,-560,-657,-426,-578,82,-270,-143
14.375,-1160,-7976,-546,-764,-448,-665,72,-273,-153
14.396999999999935,-1256,-8058,-532,-868,-488,-728,78,-272,-149
14.409284999999954,-1268,-8198,-528,-963,-527,-770,70,-265,-155
14.432000000000016,-1262,-8298,-504,-1057,-570,-794,70,-275,-160
14.45399999999995,-1292,-8372,-472,-1126,-586,-800,72,-268,-150
14.466000000000008,-1360,-8390,-428,-1189,-549,-815,72,-268,-162
14.487999999999943,-1414,-8500,-378,-1228,-439,-824,83,-267,-166
14.5,-1386,-8580,-336,-1247,-306,-821,70,-270,-172
14.521999999999935,-1420,-8662,-306,-1246,-167,-803,69,-267,-161
14.533999999999992,-1404,-8684,-364,-1239,-44,-798,53,-258,-174
14.555999999999926,-1430,-8674,-368,-1226,67,-792,62,-273,-188
14.567999999999984,-1446,-8644,-352,-1211,153,-782,59,-264,-190
14.589999999999918,-1480,-8632,-370,-1202,178,-763,54,-267,-197
14.611999999999966,-1438,-8692,-410,-1185,123,-725,50,-265,-215
14.62399999999991,-1456,-8638,-434,-1171,21,-683,48,-258,-210
14.645999999999958,-1416,-8522,-398,-1158,-85,-644,39,-259,-209
14.658000000000015,-1438,-8484,-390,-1140,-160,-607,47,-261,-218
14.67999999999995,-1412,-8446,-336,-1109,-208,-573,43,-258,-227
14.692000000000007,-1500,-8380,-372,-1067,-260,-514,35,-249,-230
14.713999999999942,-1454,-8312,-314,-1005,-324,-468,46,-240,-236
14.73599999999999,-1398,-8228,-284,-932,-362,-412,41,-248,-243
14.747999999999934,-1452,-8100,-248,-846,-367,-358,44,-249,-247
14.769999999999982,-1388,-8032,-244,-744,-353,-302,41,-243,-253
14.781999999999925,-1402,-7976,-254,-629,-358,-244,41,-245,-246
14.803999999999974,-1440,-7914,-198,-507,-349,-177,53,-248,-248
14.815999999999917,-1418,-7866,-180,-377,-319,-106,48,-240,-248
14.837999999999965,-1442,-7822,-184,-226,-271,-32,42,-234,-249
14.860000000000014,-1422,-7786,-128,-73,-176,22,41,-230,-258
14.871999999999957,-1424,-7796,-104,90,-30,80,46,-230,-267
14.894000000000005,-1428,-7822,-114,251,118,139,42,-226,-259
14.905999999999949,-1424,-7896,-158,409,241,211,52,-236,-256
14.927999999999997,-1444,-7904,-236,560,328,284,39,-226,-254
14.93999999999994,-1408,-7982,-192,698,387,345,46,-255,-258
14.961999999999989,-1412,-8046,-268,816,485,417,49,-236,-245
14.973999999999933,-1404,-8154,-290,932,546,481,42,-234,-252
14.995999999999981,-1404,-8246,-338,1027,580,541,44,-239,-237
15.017999999999915,-1400,-8344,-360,1120,590,575,49,-251,-233
15.029999999999973,-1382,-8418,-414,1177,621,609,43,-248,-246
15.052000000000021,-1372,-8518,-488,1203,623,660,41,-258,-234
15.063999999999965,-1412,-8612,-550,1216,533,714,47,-256,-223
15.086000000000013,-1394,-8596,-584,1205,375,758,41,-258,-224
15.112997999999948,-1420,-8560,-612,1191,216,770,39,-272,-216
15.125,-1370,-8666,-590,1158,125,778,52,-259,-211
15.136999999999944,-1334,-8712,-586,1113,58,783,50,-265,-203
15.158999999999992,-1348,-8562,-602,1079,-42,795,44,-256,-204
15.170999999999935,-1302,-8544,-590,1044,-135,787,48,-268,-200
15.192999999999984,-1290,-8568,-548,1007,-162,760,55,-268,-188
15.204999999999927,-1302,-8436,-544,968,-132,735,59,-269,-185
15.226999999999975,-1318,-8434,-510,936,-102,710,59,-272,-170
15.238999999999919,-1282,-8320,-540,899,-85,672,67,-278,-169
15.260999999999967,-1276,-8256,-466,859,-47,634,65,-280,-172
15.283000000000015,-1248,-8240,-508,813,41,594,78,-274,-158
15.294999999999959,-1270,-8122,-502,757,151,563,82,-265,-162
15.317000000000007,-1222,-8046,-544,704,236,519,72,-273,-155
15.32899999999995,-1248,-7930,-540,636,290,457,83,-269,-158
15.350999999999999,-1178,-7826,-532,561,329,399,83,-269,-161
15.362999999999943,-1180,-7814,-532,473,347,339,77,-273,-157
15.384999999999991,-1196,-7766,-596,373,327,267,79,-265,-150
15.406999999999925,-1174,-7774,-618,280,263,191,70,-263,-148
15.418999999999983,-1134,-7734,-608,171,179,106,93,-267,-161
15.440999999999917,-1144,-7644,-602,59,111,14,79,-265,-143
15.452999999999975,-1132,-7640,-636,-42,33,-81,84,-265,-143
15.474999999999909,-1138,-7754,-634,-162,-60,-165,82,-265,-155
15.486999999999966,-1168,-7698,-620,-270,-143,-263,76,-274,-147
15.509000000000015,-1140,-7724,-550,-373,-197,-343,75,-255,-148
15.520999999999958,-1180,-7806,-596,-471,-238,-436,71,-272,-161
15.543000000000006,-1176,-7920,-580,-570,-267,-520,79,-275,-145
15.56499999999994,-1224,-7960,-556,-677,-329,-588,79,-273,-157
15.576999999999998,-1250,-8030,-536,-770,-419,-635,72,-268,-160
15.598999999999933,-1308,-8140,-534,-857,-506,-671,71,-269,-161
15.61099999999999,-1282,-8184,-510,-934,-550,-707,64,-269,-170
15.632999999999925,-1282,-8270,-440,-994,-530,-725,69,-272,-163
15.644999999999982,-1336,-8316,-436,-1043,-484,-743,72,-265,-174
15.666999999999916,-1388,-8452,-404,-1075,-410,-750,66,-267,-166
15.688999999999965,-1346,-8442,-398,-1094,-315,-741,62,-275,-176
15.701000000000022,-1370,-8474,-366,-1098,-212,-740,66,-261,-182
15.722999999999956,-1482,-8476,-364,-1091,-95,-737,76,-261,-192
15.735000000000014,-1442,-8560,-368,-1083,-21,-709,56,-264,-197
15.756999999999948,-1486,-8528,-370,-1070,13,-687,52,-272,-192
15.769000000000005,-1420,-8498,-344,-1051,34,-661,60,-268,-203
15.79099999999994,-1498,-8482,-356,-1033,40,-635,56,-259,-194
15.812999999999988,-1416,-8468,-384,-1009,41,-602,48,-258,-207
15.824999999999932,-1460,-8442,-404,-991,22,-570,44,-254,-218
15.84699999999998,-1404,-8356,-384,-960,-27,-539,53,-260,-219
15.858999999999924,-1430,-8314,-400,-922,-107,-496,44,-256,-223
15.880999999999972,-1416,-8252,-402,-881,-188,-459,36,-253,-231
15.892999999999915,-1424,-8216,-352,-829,-249,-410,49,-246,-233
15.914999999999964,-1370,-8134,-344,-769,-298,-357,49,-254,-225
15.937000000000012,-1416,-8096,-300,-689,-342,-305,33,-248,-241
15.948999999999955,-1412,-8050,-230,-603,-356,-254,38,-250,-241
15.971000000000004,-1448,-7948,-214,-505,-331,-206,54,-246,-242
15.982999999999947,-1436,-7906,-208,-392,-285,-145,32,-246,-245
16.004999999999995,-1422,-7892,-186,-272,-230,-85,33,-232,-246
16.01699999999994,-1382,-7874,-212,-147,-176,-28,41,-255,-241
16.038999999999987,-1432,-7876,-210,-13,-104,26,38,-240,-248
16.05099999999993,-1398,-7902,-188,116,-22,82,33,-235,-251
16.07299999999998,-1426,-7880,-198,256,67,154,41,-245,-243
16.094999999999914,-1444,-7938,-230,386,146,221,52,-239,-249
16.10699999999997,-1428,-7964,-232,509,248,284,44,-244,-233
16.12900000000002,-1398,-8032,-212,635,342,343,43,-240,-243
16.140999999999963,-1406,-8090,-262,737,443,388,46,-245,-246
16.16300000000001,-1408,-8214,-312,833,536,442,48,-248,-241
16.174999999999955,-1372,-8216,-364,915,574,493,49,-241,-240
16.197000000000003,-1424,-8282,-428,975,581,550,47,-254,-233
16.208999999999946,-1370,-8364,-452,1015,550,592,52,-249,-223
16.230999999999995,-1368,-8402,-502,1037,492,629,48,-255,-219
16.25299999999993,-1386,-8462,-532,1043,430,653,44,-251,-216
16.264999999999986,-1368,-8450,-546,1035,341,675,41,-258,-215
16.28699999999992,-1384,-8486,-568,1016,240,696,43,-245,-210
16.298999999999978,-1328,-8506,-572,991,151,708,50,-273,-205
16.320999999999913,-1334,-8510,-618,961,53,714,61,-267,-199
16.33299999999997,-1316,-8470,-540,933,-17,708,50,-263,-200
16.355000000000018,-1286,-8410,-552,905,-59,688,52,-267,-202
16.376999999999953,-1316,-8372,-550,868,-91,663,65,-270,-184
16.38900000000001,-1338,-8356,-556,833,-93,644,58,-268,-179
16.410999999999945,-1272,-8296,-548,796,-91,619,65,-270,-174
16.423000000000002,-1224,-8248,-480,762,-73,588,60,-260,-179
16.444999999999936,-1240,-8114,-492,727,-27,548,69,-269,-161
16.456999999999994,-1212,-8168,-508,677,64,506,67,-260,-172
16.478999999999928,-1230,-8062,-530,630,148,468,70,-265,-164
16.500999999999976,-1258,-8016,-492,569,204,430,76,-274,-173
16.51299999999992,-1230,-7988,-564,507,245,385,82,-268,-167
16.534999999999968,-1190,-7884,-514,437,278,337,78,-264,-156
16.546999999999912,-1190,-7822,-566,366,283,280,76,-267,-156
16.56899999999996,-1162,-7840,-612,277,261,199,78,-269,-161
16.581000000000017,-1170,-7750,-614,190,209,129,79,-273,-150
16.602999999999952,-1166,-7734,-600,98,136,60,78,-259,-149
16.61500000000001,-1192,-7754,-622,6,52,-16,82,-268,-153
16.636999999999944,-1134,-7738,-590,-83,-10,-109,81,-274,-156
16.658999999999992,-1172,-7818,-586,-174,-55,-197,77,-275,-157
16.670999999999935,-1162,-7830,-594,-265,-106,-288,77,-263,-164
16.692999999999984,-1232,-7862,-540,-362,-156,-364,79,-273,-162
16.704999999999927,-1234,-7890,-580,-459,-227,-428,76,-269,-168
16.726999999999975,-1258,-7936,-602,-549,-314,-492,67,-268,-162
16.73899999999992,-1246,-8050,-562,-644,-408,-540,73,-274,-161
16.760999999999967,-1230,-8048,-574,-730,-486,-578,65,-278,-160
16.783000000000015,-1280,-8120,-504,-805,-551,-605,69,-274,-163
16.79499999999996,-1320,-8224,-480,-868,-557,-623,75,-280,-164
16.817000000000007,-1372,-8270,-412,-914,-499,-635,70,-280,-172
16.82899999999995,-1336,-8262,-348,-939,-390,-648,72,-260,-181
16.851,-1372,-8328,-314,-943,-261,-657,65,-265,-176
16.862999999999943,-1396,-8338,-302,-946,-152,-661,66,-272,-180
16.88499999999999,-1390,-8414,-334,-936,-60,-656,55,-275,-184
16.906999999999925,-1408,-8356,-350,-925,0,-641,67,-260,-193
16.918999999999983,-1410,-8332,-398,-914,41,-640,52,-269,-197
16.940999999999917,-1410,-8406,-396,-897,44,-627,62,-265,-200
16.952999999999975,-1448,-8376,-382,-894,35,-605,49,-269,-197
16.97499999999991,-1452,-8366,-410,-882,-3,-567,53,-265,-205
16.986999999999966,-1430,-8330,-414,-859,-65,-537,53,-263,-203
17.009000000000015,-1424,-8298,-344,-838,-92,-513,47,-259,-218
17.020999999999958,-1418,-8252,-404,-812,-105,-482,38,-255,-217
17.043000000000006,-1390,-8270,-354,-781,-157,-436,46,-260,-219
17.06499999999994,-1415,-8135,-317,-743,-225,-393,47,-249,-221
17.076999999999998,-1437,-8077,-399,-693,-299,-344,33,-248,-231
17.098999999999933,-1429,-8059,-311,-631,-332,-304,44,-251,-230
17.11599799999999,-1397,-8065,-293,-561,-308,-253,37,-259,-237
17.12799999999993,-1397,-7959,-295,-464,-285,-202,47,-251,-237
17.149999999999977,-1429,-7955,-277,-371,-248,-153,46,-248,-243
17.16199999999992,-1397,-7897,-273,-261,-200,-111,39,-234,-252
17.18399999999997,-1407,-7881,-209,-148,-130,-58,50,-250,-239
17.206000000000017,-1427,-7879,-191,-40,-56,5,48,-253,-239
17.21799999999996,-1389,-7897,-227,81,0,68,43,-240,-236
17.24000000000001,-1379,-7923,-203,202,70,111,35,-246,-242
17.251999999999953,-1407,-7939,-199,302,191,171,49,-241,-242
17.274,-1427,-8007,-291,403,273,236,43,-240,-234
17.295999999999935,-1381,-8001,-309,502,304,305,39,-249,-240
17.307999999999993,-1357,-8072,-296,598,304,353,46,-243,-234
17.329999999999927,-1378,-8056,-371,673,368,390,43,-258,-243
17.341999999999985,-1358,-8201,-290,734,462,427,47,-249,-228
17.36399999999992,-1389,-8272,-399,794,479,475,53,-240,-222
17.375999999999976,-1373,-8284,-437,847,440,523,39,-246,-230
17.39799999999991,-1345,-8324,-439,882,397,556,48,-260,-219
17.409999999999968,-1377,-8362,-471,900,398,567,50,-263,-217
17.432000000000016,-1345,-8414,-501,900,385,588,60,-260,-210
17.45399999999995,-1355,-8416,-543,888,312,606,53,-268,-212
17.466000000000008,-1369,-8388,-545,881,180,630,50,-265,-200
17.487999999999943,-1343,-8390,-593,863,59,633,46,-268,-198
17.5,-1363,-8364,-473,826,19,624,56,-272,-199
17.521999999999935,-1315,-8364,-567,795,15,611,52,-269,-187
17.533999999999992,-1345,-8358,-507,767,-16,605,54,-259,-190
17.555999999999926,-1271,-8306,-503,740,-44,586,59,-267,-185
17.577999999999975,-1273,-8243,-470,706,-27,565,65,-270,-179
17.589999999999918,-1246,-8159,-541,670,8,535,59,-272,-182
17.611999999999966,-1259,-8164,-466,627,49,508,62,-270,-176
17.62399999999991,-1237,-8063,-503,585,60,475,73,-267,-170
17.645999999999958,-1237,-8065,-523,545,66,443,76,-272,-163
17.658000000000015,-1243,-7991,-513,498,102,403,79,-275,-176
17.67999999999995,-1223,-7893,-535,443,143,355,65,-268,-167
17.692000000000007,-1185,-7893,-495,383,187,297,85,-267,-170
17.713999999999942,-1161,-7849,-547,320,220,246,70,-265,-157
17.73599999999999,-1195,-7871,-565,257,217,197,82,-270,-155
17.747999999999934,-1135,-7769,-609,178,191,135,73,-264,-168
17.769999999999982,-1161,-7817,-595,103,147,60,78,-274,-158
17.781999999999925,-1167,-7769,-601,22,96,-15,79,-263,-153
17.803999999999974,-1217,-7845,-627,-65,13,-80,67,-265,-157
17.815999999999917,-1173,-7831,-589,-146,-79,-143,78,-267,-161
17.837999999999965,-1187,-7825,-515,-223,-157,-211,66,-264,-156
17.850284999999985,-1221,-7827,-533,-311,-163,-289,77,-263,-153
17.871999999999957,-1237,-7935,-563,-395,-166,-350,85,-269,-158
17.894000000000005,-1225,-7925,-545,-462,-219,-405,76,-261,-158
17.90599999999995,-1248,-7995,-514,-536,-291,-455,75,-268,-169
17.927999999999997,-1262,-8021,-482,-608,-363,-497,72,-270,-174
17.93999999999994,-1260,-8059,-530,-676,-408,-541,69,-272,-166
17.96199999999999,-1294,-8137,-472,-737,-452,-564,66,-274,-175
17.973999999999933,-1334,-8165,-422,-778,-485,-576,65,-265,-172
17.99599999999998,-1324,-8221,-402,-810,-453,-585,65,-268,-172
18.017999999999915,-1356,-8219,-356,-826,-357,-586,67,-273,-176
18.029999999999973,-1388,-8221,-346,-838,-228,-595,59,-261,-190
18.05200000000002,-1358,-8289,-334,-829,-125,-596,72,-260,-184
18.063999999999965,-1364,-8291,-340,-831,-51,-585,66,-267,-185
18.086000000000013,-1382,-8305,-356,-816,-7,-567,55,-260,-196
18.097999999999956,-1372,-8245,-378,-800,4,-542,52,-272,-202
18.120000000000005,-1404,-8281,-386,-782,-5,-523,61,-264,-199
18.14199999999994,-1400,-8251,-378,-755,-3,-529,55,-263,-205
18.153999999999996,-1414,-8241,-382,-739,18,-504,52,-267,-199
18.17599999999993,-1416,-8253,-400,-714,3,-482,49,-269,-204
18.187999999999988,-1408,-8225,-404,-692,-56,-439,47,-256,-211
18.209999999999923,-1446,-8173,-388,-660,-141,-406,47,-261,-225
18.22199999999998,-1376,-8083,-318,-625,-199,-374,50,-263,-222
18.243999999999915,-1426,-8127,-332,-593,-231,-336,50,-253,-229
18.255999999999972,-1402,-8113,-288,-545,-243,-291,44,-259,-225
18.27800000000002,-1384,-8079,-286,-480,-268,-237,47,-254,-228
18.299999999999955,-1404,-7983,-256,-403,-277,-193,42,-249,-223
18.312000000000012,-1420,-7967,-230,-324,-219,-160,44,-256,-228
18.333999999999946,-1378,-7971,-224,-239,-154,-119,35,-241,-233
18.346000000000004,-1368,-7953,-226,-138,-110,-69,42,-249,-235
18.367999999999938,-1390,-7959,-248,-46,-82,-8,43,-253,-236
18.379999999999995,-1394,-7939,-280,55,-55,43,42,-251,-225
18.40199999999993,-1344,-7905,-218,162,11,82,54,-249,-233
18.423999999999978,-1436,-7961,-242,254,117,129,41,-260,-229
18.435999999999922,-1420,-8021,-264,339,217,182,47,-256,-228
18.45799999999997,-1430,-7977,-332,426,252,243,47,-254,-233
18.469999999999914,-1400,-8075,-340,505,256,299,46,-255,-227
18.491999999999962,-1380,-8125,-314,570,301,336,46,-255,-219
18.50400000000002,-1358,-8133,-324,623,371,376,46,-245,-234
18.525999999999954,-1410,-8163,-400,670,407,419,41,-255,-219
18.548000000000002,-1368,-8209,-380,720,376,469,43,-253,-217
18.559999999999945,-1336,-8239,-434,752,345,494,37,-264,-216
18.581999999999994,-1330,-8243,-400,775,366,515,53,-263,-212
18.593999999999937,-1344,-8289,-482,779,387,531,48,-260,-215
18.615999999999985,-1322,-8221,-468,783,344,554,49,-259,-204
18.62799999999993,-1312,-8277,-524,776,241,562,52,-277,-204
18.649999999999977,-1332,-8277,-536,763,151,557,46,-255,-191
18.66199999999992,-1342,-8249,-510,737,102,556,53,-263,-198
18.68399999999997,-1290,-8287,-558,707,69,552,49,-264,-194
18.706000000000017,-1304,-8231,-534,677,10,548,60,-268,-184
18.71799999999996,-1300,-8255,-532,645,-33,531,43,-265,-186
18.74000000000001,-1246,-8153,-520,612,-25,506,59,-274,-185
18.751999999999953,-1274,-8157,-468,569,14,483,48,-270,-179
18.774,-1260,-8157,-508,526,35,470,64,-264,-185
18.785999999999945,-1240,-8081,-506,500,33,443,66,-274,-180
18.807999999999993,-1222,-7985,-496,463,51,405,66,-272,-178
18.829999999999927,-1176,-7985,-476,418,112,355,60,-265,-169
18.841999999999985,-1242,-7989,-468,369,158,319,60,-270,-164
18.86399999999992,-1216,-7897,-524,329,158,283,67,-265,-164
18.875999999999976,-1188,-7849,-486,276,135,233,75,-268,-167
18.89799999999991,-1206,-7861,-514,220,147,172,76,-267,-156
18.909999999999968,-1150,-7903,-552,150,170,110,71,-261,-151
18.932000000000016,-1196,-7855,-566,84,152,54,78,-264,-166
18.95399999999995,-1166,-7871,-554,16,93,6,81,-267,-166
18.966000000000008,-1210,-7847,-554,-51,26,-54,75,-268,-162
18.987999999999943,-1156,-7861,-552,-134,-26,-123,73,-267,-168
19.0,-1178,-7927,-586,-213,-54,-190,69,-264,-161
19.021999999999935,-1224,-7929,-558,-284,-116,-231,71,-277,-166
19.033999999999992,-1184,-7873,-564,-353,-202,-284,67,-260,-160
19.055999999999926,-1234,-7935,-526,-428,-239,-345,67,-263,-172
19.067999999999984,-1312,-7981,-532,-492,-250,-393,73,-264,-168
19.089999999999918,-1318,-8037,-512,-552,-297,-429,73,-277,-166
19.116997999999967,-1288,-8025,-464,-593,-379,-459,66,-264,-173
19.12900000000002,-1264,-8095,-444,-635,-404,-490,66,-267,-178
19.140999999999963,-1290,-8115,-414,-676,-360,-515,69,-269,-180
19.16300000000001,-1298,-8165,-372,-700,-315,-536,65,-268,-181
19.174999999999955,-1344,-8225,-346,-708,-289,-544,60,-268,-181
19.197000000000003,-1342,-8237,-372,-715,-248,-550,61,-269,-185
19.208999999999946,-1372,-8177,-366,-710,-175,-548,59,-269,-194
19.230999999999995,-1352,-8275,-350,-715,-104,-545,60,-273,-188
19.25299999999993,-1332,-8217,-414,-713,-67,-538,49,-267,-199
19.264999999999986,-1356,-8287,-420,-699,-76,-519,56,-259,-197
19.28699999999992,-1350,-8301,-388,-689,-81,-494,53,-265,-205
19.298999999999978,-1370,-8207,-398,-673,-70,-482,47,-259,-206
19.320999999999913,-1364,-8167,-394,-652,-61,-456,44,-259,-218
19.33299999999997,-1352,-8153,-378,-629,-59,-448,50,-263,-212
19.355000000000018,-1390,-8161,-368,-603,-87,-409,53,-263,-210
19.376999999999953,-1434,-8153,-352,-569,-137,-369,49,-256,-211
19.38900000000001,-1388,-8107,-354,-527,-178,-351,47,-261,-223
19.410999999999945,-1380,-8045,-316,-487,-175,-320,42,-249,-218
19.423000000000002,-1396,-8065,-312,-437,-169,-285,44,-267,-225
19.444999999999936,-1442,-8009,-326,-382,-182,-239,43,-255,-231
19.456999999999994,-1400,-8045,-312,-326,-201,-193,47,-254,-228
19.478999999999928,-1370,-7991,-308,-254,-202,-133,42,-249,-228
19.500999999999976,-1368,-7971,-236,-179,-150,-90,46,-243,-227
19.51299999999992,-1368,-7971,-258,-101,-67,-57,46,-260,-227
19.534999999999968,-1370,-7959,-248,-7,2,-16,41,-248,-219
19.546999999999912,-1448,-7955,-258,76,76,13,42,-254,-218
19.56899999999996,-1408,-7983,-274,145,115,68,38,-250,-234
19.581000000000017,-1370,-7967,-336,228,104,139,53,-248,-227
19.602999999999952,-1330,-7955,-358,302,96,176,43,-258,-236
19.61500000000001,-1366,-8003,-314,369,123,197,46,-260,-219
19.636999999999944,-1418,-8079,-334,429,182,235,50,-253,-227
19.658999999999992,-1424,-8139,-374,486,229,288,50,-253,-229
19.670999999999935,-1398,-8129,-400,535,240,347,42,-246,-216
19.692999999999984,-1344,-8141,-384,589,258,395,43,-258,-217
19.704999999999927,-1292,-8133,-378,621,322,413,37,-259,-216
19.726999999999975,-1392,-8169,-388,653,399,424,52,-256,-218
19.73899999999992,-1358,-8243,-460,667,413,462,52,-261,-209
19.760999999999967,-1370,-8193,-490,676,337,498,47,-261,-211
19.783000000000015,-1312,-8255,-526,686,235,515,44,-272,-209
19.79499999999996,-1272,-8197,-484,683,214,515,47,-264,-202
19.817000000000007,-1302,-8225,-490,662,232,502,56,-259,-197
19.82899999999995,-1324,-8199,-488,651,219,499,50,-280,-191
19.851,-1272,-8203,-528,631,145,500,49,-267,-190
19.862999999999943,-1318,-8217,-576,596,85,499,55,-273,-193
19.88499999999999,-1296,-8137,-546,557,61,487,60,-268,-196
19.89728500000001,-1280,-8159,-514,517,43,467,54,-274,-194
19.918999999999983,-1250,-8103,-516,481,15,440,61,-272,-182
19.940999999999917,-1286,-8047,-468,440,-9,419,61,-277,-185
19.952999999999975,-1284,-8065,-510,398,-8,398,64,-274,-194
19.97499999999991,-1248,-8069,-514,363,12,372,64,-274,-175
19.986999999999966,-1218,-7975,-502,331,32,340,72,-268,-186
20.009000000000015,-1224,-7917,-460,291,77,295,67,-268,-179
20.03099999999995,-1260,-7939,-480,260,122,242,75,-265,-164
20.043000000000006,-1206,-7927,-534,207,175,191,65,-270,-174
20.06499999999994,-1188,-7883,-494,161,176,153,62,-260,-167
20.076999999999998,-1226,-7883,-516,112,125,103,71,-267,-175
20.098999999999933,-1186,-7861,-532,50,89,55,71,-277,-161
20.11099999999999,-1214,-7875,-508,-6,68,3,67,-268,-169
20.132999999999925,-1186,-7879,-564,-76,45,-54,70,-278,-169
20.144999999999982,-1216,-7903,-532,-139,6,-111,75,-268,-172
20.166999999999916,-1214,-7893,-476,-202,-25,-153,66,-269,-170
20.188999999999965,-1180,-7921,-544,-268,-72,-201,69,-264,-173
20.201000000000022,-1234,-7925,-514,-332,-121,-258,65,-270,-172
20.222999999999956,-1204,-7935,-520,-392,-192,-307,69,-261,-182
20.235000000000014,-1260,-8015,-516,-447,-271,-353,62,-270,-179
20.256999999999948,-1270,-8027,-522,-503,-348,-397,61,-267,-178
20.269000000000005,-1322,-8035,-444,-540,-401,-416,52,-269,-170
20.29099999999994,-1302,-8079,-436,-578,-418,-448,61,-272,-173
20.302999999999997,-1294,-8119,-390,-606,-380,-480,59,-264,-178
20.324999999999932,-1316,-8135,-392,-627,-318,-483,65,-265,-188
20.34699999999998,-1262,-8177,-406,-636,-270,-484,62,-270,-186
20.358999999999924,-1362,-8161,-406,-640,-226,-477,62,-273,-191
20.380999999999972,-1342,-8157,-356,-640,-171,-480,59,-267,-199
20.392999999999915,-1410,-8193,-332,-635,-89,-473,61,-269,-192
20.414999999999964,-1372,-8203,-394,-622,-45,-453,61,-264,-194
20.42700000000002,-1394,-8233,-346,-606,-23,-438,52,-269,-194
20.448999999999955,-1372,-8179,-358,-583,-1,-426,50,-263,-203
20.471000000000004,-1374,-8173,-326,-557,39,-417,50,-245,-207
20.482999999999947,-1392,-8123,-364,-534,67,-411,53,-263,-210
20.504999999999995,-1368,-8135,-426,-495,39,-402,50,-265,-207
20.51699999999994,-1320,-8129,-336,-469,-23,-402,49,-259,-216
20.538999999999987,-1360,-8127,-400,-446,-94,-385,50,-260,-215
20.55099999999993,-1364,-8157,-408,-420,-175,-357,55,-255,-222
20.57299999999998,-1384,-8053,-426,-392,-275,-324,53,-260,-222
20.594999999999914,-1402,-8071,-400,-362,-378,-290,49,-256,-223
20.60699999999997,-1390,-8129,-344,-325,-388,-257,43,-245,-229
20.62900000000002,-1426,-8055,-310,-279,-345,-212,36,-265,-222
20.640999999999963,-1406,-8003,-284,-224,-276,-155,60,-243,-219
20.66300000000001,-1390,-8033,-254,-162,-200,-100,38,-250,-215
20.674999999999955,-1402,-7985,-254,-83,-122,-35,50,-263,-227
20.697000000000003,-1360,-8003,-266,0,-21,-1,48,-250,-224
20.708999999999946,-1384,-7993,-258,80,107,31,52,-251,-228
20.730999999999995,-1366,-7961,-270,170,176,79,43,-255,-215
20.75299999999993,-1352,-7997,-302,251,187,122,54,-251,-223
20.764999999999986,-1384,-7939,-356,327,200,154,42,-256,-221
20.78699999999992,-1344,-8037,-310,386,252,175,44,-259,-213
20.798999999999978,-1402,-8047,-356,439,311,215,43,-250,-224
20.820999999999913,-1388,-8117,-430,485,318,266,49,-256,-218
20.83299999999997,-1390,-8119,-410,520,276,302,53,-248,-217
20.855000000000018,-1358,-8079,-440,539,281,336,48,-260,-224
20.876999999999953,-1330,-8137,-446,546,319,366,48,-273,-210
20.88900000000001,-1370,-8147,-508,545,303,403,47,-259,-211
20.910999999999945,-1326,-8199,-520,552,218,430,54,-269,-202
20.923000000000002,-1324,-8153,-502,552,135,452,50,-270,-207
20.944999999999936,-1326,-8145,-484,545,110,461,44,-264,-211
20.956999999999994,-1326,-8155,-470,544,120,459,61,-261,-197
20.978999999999928,-1272,-8173,-478,542,102,460,50,-270,-207
21.000999999999976,-1298,-8131,-468,544,72,449,52,-261,-199
21.01299999999992,-1270,-8161,-454,540,91,438,44,-269,-190
21.034999999999968,-1308,-8173,-482,520,141,428,71,-261,-187
21.046999999999912,-1298,-8101,-468,500,169,423,61,-269,-190
21.06899999999996,-1302,-8143,-520,470,150,418,67,-268,-198
21.081000000000017,-1306,-8113,-522,439,133,402,54,-264,-182
21.102999999999952,-1258,-8109,-518,393,156,389,56,-272,-190
21.11999800000001,-1260,-8061,-548,350,172,373,50,-265,-174
21.14199999999994,-1274,-8045,-516,305,156,349,72,-273,-176
21.153999999999996,-1246,-8009,-510,261,133,318,58,-265,-181
21.17599999999993,-1208,-7955,-474,215,126,285,69,-259,-178
21.187999999999988,-1246,-7919,-552,167,126,240,70,-263,-174
21.209999999999923,-1224,-7921,-538,123,102,196,67,-273,-172
21.22199999999998,-1236,-7947,-504,79,65,138,83,-272,-185
21.243999999999915,-1210,-7869,-518,34,40,86,82,-265,-164
21.255999999999972,-1198,-7875,-484,-12,23,34,67,-268,-179
21.27800000000002,-1202,-7929,-472,-61,-15,-14,64,-274,-173
21.299999999999955,-1194,-7925,-500,-106,-50,-66,69,-277,-166
21.312000000000012,-1244,-7999,-504,-159,-62,-111,73,-277,-170
21.333999999999946,-1224,-7959,-520,-218,-57,-153,77,-278,-174
21.346000000000004,-1278,-7973,-502,-276,-77,-190,69,-269,-185
21.367999999999938,-1236,-8011,-532,-325,-135,-224,72,-270,-176
21.379999999999995,-1240,-7983,-518,-371,-172,-269,60,-273,-172
21.40199999999993,-1202,-7977,-446,-421,-197,-308,65,-265,-172
21.423999999999978,-1276,-8059,-474,-460,-230,-333,69,-267,-180
21.435999999999922,-1282,-8061,-450,-490,-263,-358,59,-269,-187
21.45799999999997,-1270,-8067,-422,-505,-280,-382,59,-261,-187
21.469999999999914,-1316,-8059,-392,-518,-263,-416,55,-263,-186
21.491999999999962,-1282,-8091,-386,-536,-202,-451,56,-261,-178
21.50400000000002,-1344,-8129,-408,-546,-163,-452,65,-270,-184
21.525999999999954,-1360,-8119,-454,-544,-189,-443,49,-264,-192
21.548000000000002,-1340,-8113,-412,-541,-221,-447,69,-256,-202
21.559999999999945,-1358,-8141,-362,-540,-193,-456,43,-260,-205
21.581999999999994,-1360,-8167,-320,-547,-132,-455,64,-261,-190
21.593999999999937,-1386,-8189,-396,-537,-115,-434,62,-255,-207
21.615999999999985,-1360,-8129,-380,-522,-163,-401,62,-268,-198
21.62799999999993,-1334,-8117,-328,-490,-172,-382,52,-269,-204
21.649999999999977,-1346,-8123,-288,-469,-102,-387,54,-251,-206
21.66199999999992,-1430,-8143,-378,-443,-29,-373,55,-258,-205
21.68399999999997,-1396,-8153,-378,-411,-38,-345,48,-265,-215
21.706000000000017,-1378,-8111,-364,-368,-115,-308,49,-256,-209
21.71799999999996,-1364,-7985,-332,-326,-154,-295,47,-264,-223
21.74000000000001,-1360,-8039,-272,-292,-115,-282,41,-260,-205
21.751999999999953,-1394,-8047,-344,-255,-96,-253,49,-259,-223
21.774,-1394,-8009,-356,-211,-124,-217,39,-261,-216
21.785999999999945,-1416,-8041,-332,-152,-164,-170,55,-260,-217
21.807999999999993,-1378,-8043,-388,-101,-163,-142,43,-253,-222
21.829999999999927,-1404,-7999,-350,-62,-81,-113,48,-260,-215
21.841999999999985,-1408,-8033,-320,-1,-26,-62,53,-255,-227
21.86399999999992,-1442,-8023,-338,50,-14,-10,43,-260,-215
21.875999999999976,-1468,-7995,-348,117,-12,42,44,-254,-216
21.89799999999991,-1404,-7963,-296,169,41,77,43,-260,-212
21.909999999999968,-1350,-7991,-350,225,126,100,50,-260,-217
21.932000000000016,-1394,-8051,-296,283,148,138,52,-259,-221
21.94399999999996,-1410,-8077,-350,337,156,179,47,-249,-218
21.966000000000008,-1366,-8073,-340,387,173,217,43,-258,-212
21.987999999999943,-1304,-8023,-324,434,226,236,53,-260,-215
22.0,-1382,-8061,-412,468,275,251,42,-259,-216
22.021999999999935,-1408,-8101,-418,492,280,268,58,-255,-205
22.033999999999992,-1330,-8169,-462,494,265,315,43,-268,-205
22.055999999999926,-1410,-8187,-490,497,216,375,48,-268,-207
22.067999999999984,-1316,-8159,-454,499,175,412,56,-259,-204
22.089999999999918,-1280,-8123,-444,502,186,424,50,-270,-205
22.111999999999966,-1320,-8137,-424,497,248,416,46,-268,-196
22.12399999999991,-1346,-8115,-412,493,291,414,50,-268,-200
22.145999999999958,-1340,-8141,-512,485,273,418,56,-269,-197
22.158000000000015,-1272,-8147,-540,468,209,424,54,-277,-194
22.17999999999995,-1258,-8117,-514,450,129,427,43,-270,-191
22.201999999999998,-1236,-8067,-452,434,77,397,50,-275,-188
22.213999999999942,-1278,-8107,-480,406,72,353,54,-267,-190
22.23599999999999,-1296,-8089,-512,372,77,334,58,-273,-188
22.247999999999934,-1320,-8107,-530,329,38,336,62,-268,-181
22.269999999999982,-1258,-8023,-520,293,-23,339,56,-259,-187
22.281999999999925,-1242,-8039,-492,261,-40,314,69,-269,-180
22.303999999999974,-1212,-7931,-488,216,26,270,66,-264,-182
22.315999999999917,-1282,-8011,-472,161,102,239,64,-274,-185
22.337999999999965,-1272,-8019,-546,123,101,246,60,-278,-174
22.34999999999991,-1224,-7943,-466,93,40,245,62,-278,-181
22.371999999999957,-1210,-7911,-450,65,38,202,65,-280,-179
22.394000000000005,-1224,-7865,-452,29,130,134,66,-264,-178
22.40599999999995,-1178,-7911,-462,4,205,64,71,-259,-178
22.427999999999997,-1208,-7925,-464,-29,195,31,67,-275,-176
22.43999999999994,-1264,-7935,-476,-61,131,2,62,-260,-191
22.46199999999999,-1196,-7865,-494,-102,87,-52,58,-280,-179
22.483999999999924,-1256,-7893,-506,-158,88,-117,77,-260,-174
22.49599999999998,-1276,-8051,-548,-213,49,-158,61,-279,-185
22.517999999999915,-1246,-8045,-568,-271,-72,-178,66,-274,-182
22.529999999999973,-1268,-7951,-550,-325,-200,-202,53,-268,-179
22.55200000000002,-1244,-7999,-532,-383,-262,-240,59,-269,-182
22.563999999999965,-1292,-7989,-524,-435,-281,-278,66,-277,-182
22.586000000000013,-1274,-7999,-454,-462,-332,-309,58,-265,-188
22.597999999999956,-1324,-8067,-438,-488,-382,-328,62,-268,-174
22.620000000000005,-1298,-8015,-382,-495,-391,-346,71,-272,-197
22.64199999999994,-1296,-8099,-362,-502,-322,-370,65,-268,-186
22.653999999999996,-1306,-8095,-330,-500,-241,-389,52,-264,-197
22.67599999999993,-1290,-8105,-352,-482,-172,-407,70,-265,-193
22.687999999999988,-1330,-8051,-426,-463,-132,-400,61,-256,-192
22.709999999999923,-1298,-8123,-370,-451,-98,-401,56,-254,-197
22.72199999999998,-1360,-8127,-356,-445,-41,-401,61,-274,-204
22.743999999999915,-1356,-8097,-412,-429,-8,-397,56,-269,-197
22.755999999999972,-1380,-8119,-392,-419,-10,-386,54,-254,-204
22.77800000000002,-1386,-8163,-402,-407,-29,-369,54,-249,-213
22.799999999999955,-1382,-8099,-432,-396,-58,-346,48,-250,-207
22.812000000000012,-1370,-8079,-358,-390,-80,-326,50,-268,-203
22.833999999999946,-1336,-8081,-366,-367,-99,-313,56,-261,-209
22.846000000000004,-1352,-8109,-352,-336,-108,-296,53,-265,-215
22.867999999999938,-1388,-8025,-344,-305,-130,-282,36,-268,-207
22.879999999999995,-1370,-8043,-354,-271,-135,-274,49,-256,-225
22.90199999999993,-1338,-8015,-330,-230,-133,-254,55,-253,-210
22.923999999999978,-1392,-8053,-346,-182,-170,-233,48,-253,-219
22.935999999999922,-1348,-8001,-352,-137,-209,-200,49,-254,-218
22.95799999999997,-1362,-8009,-306,-93,-207,-177,49,-259,-218
22.969999999999914,-1364,-7979,-286,-52,-169,-144,53,-260,-217
22.991999999999962,-1404,-8021,-294,-2,-121,-102,50,-253,-217
23.00400000000002,-1372,-8053,-332,57,-87,-54,38,-263,-222
23.025999999999954,-1386,-7987,-330,106,-40,-17,42,-256,-218
23.038284999999973,-1430,-8037,-320,155,41,15,42,-267,-213
23.059999999999945,-1390,-8009,-296,194,111,59,47,-267,-233
23.081999999999994,-1424,-8049,-336,245,115,107,49,-259,-228
23.093999999999937,-1396,-8027,-328,297,126,151,47,-259,-221
23.120997999999986,-1336,-7993,-328,339,169,169,53,-265,-217
23.132999999999925,-1372,-8077,-344,375,253,186,55,-265,-210
23.144999999999982,-1392,-8085,-418,404,289,221,54,-267,-213
23.166999999999916,-1372,-8113,-456,435,246,262,44,-256,-209
23.188999999999965,-1368,-8089,-398,453,220,286,42,-264,-204
23.201000000000022,-1324,-8047,-442,464,238,286,41,-268,-203
23.222999999999956,-1306,-8135,-462,453,265,293,52,-264,-204
23.235000000000014,-1328,-8139,-482,446,237,320,52,-264,-204
23.256999999999948,-1350,-8149,-502,439,151,358,41,-270,-193
23.269000000000005,-1262,-8111,-498,433,79,370,54,-267,-199
23.29099999999994,-1332,-8101,-436,402,83,364,43,-260,-196
23.302999999999997,-1282,-8071,-496,385,123,353,56,-272,-194
23.324999999999932,-1344,-8073,-460,367,115,359,48,-273,-176
23.34699999999998,-1298,-8075,-464,353,63,372,54,-264,-202
23.358999999999924,-1248,-8047,-496,335,37,363,58,-278,-181
23.380999999999972,-1208,-8025,-454,312,87,342,55,-270,-184
23.392999999999915,-1274,-8011,-422,287,152,318,60,-268,-186
23.414999999999964,-1290,-8087,-492,260,156,305,59,-269,-175
23.42700000000002,-1330,-8039,-458,242,128,314,54,-272,-175
23.448999999999955,-1252,-8003,-482,210,116,296,59,-269,-185
23.471000000000004,-1222,-7943,-478,181,158,249,70,-268,-184
23.482999999999947,-1276,-7967,-462,144,195,208,64,-267,-178
23.504999999999995,-1266,-7921,-536,101,182,183,64,-269,-178
23.51699999999994,-1258,-7981,-524,62,113,162,67,-275,-174
23.538999999999987,-1268,-7953,-542,13,46,140,53,-268,-184
23.55099999999993,-1172,-7917,-506,-33,18,97,66,-267,-175
23.57299999999998,-1208,-7985,-480,-77,27,52,62,-263,-176
23.594999999999914,-1272,-7953,-518,-124,16,14,66,-267,-190
23.60699999999997,-1232,-7969,-520,-165,-26,1,66,-272,-180
23.62900000000002,-1224,-7985,-472,-205,-73,-33,64,-259,-182
23.640999999999963,-1210,-7921,-446,-236,-75,-87,62,-273,-174
23.66300000000001,-1240,-7993,-472,-265,-67,-131,71,-269,-180
23.674999999999955,-1248,-8015,-454,-300,-71,-173,66,-264,-182
23.697000000000003,-1298,-8075,-432,-320,-122,-196,67,-268,-181
23.708999999999946,-1236,-8009,-414,-344,-169,-206,66,-264,-180
23.730999999999995,-1268,-7989,-396,-372,-167,-243,58,-268,-184
23.75299999999993,-1234,-8005,-432,-398,-141,-284,67,-260,-188
23.764999999999986,-1312,-8033,-428,-410,-135,-300,67,-268,-196
23.78699999999992,-1300,-8081,-438,-427,-161,-299,55,-258,-184
23.798999999999978,-1278,-8063,-456,-430,-186,-303,62,-255,-196
23.820999999999913,-1282,-8041,-386,-430,-178,-322,59,-264,-197
23.83299999999997,-1290,-8027,-362,-430,-140,-344,56,-261,-190
23.855000000000018,-1350,-8065,-378,-423,-114,-360,58,-258,-198
23.876999999999953,-1346,-8077,-404,-414,-135,-363,71,-256,-199
23.88900000000001,-1332,-8081,-396,-410,-162,-355,58,-265,-200
23.910999999999945,-1286,-8053,-368,-390,-180,-359,61,-256,-197
23.923000000000002,-1372,-8051,-362,-374,-172,-355,52,-272,-204
23.944999999999936,-1392,-8109,-382,-358,-160,-352,55,-265,-207
23.956999999999994,-1348,-8091,-362,-336,-153,-334,54,-272,-204
23.978999999999928,-1368,-8069,-358,-313,-161,-306,52,-251,-209
23.990999999999985,-1310,-8093,-358,-279,-168,-276,50,-275,-217
24.01299999999992,-1324,-8067,-332,-245,-140,-272,56,-261,-211
24.034999999999968,-1358,-8041,-272,-210,-77,-270,55,-263,-210
24.046999999999912,-1358,-8071,-312,-179,-38,-240,53,-260,-219
24.06899999999996,-1360,-8055,-364,-135,-62,-210,50,-255,-207
24.081000000000017,-1380,-8025,-394,-97,-100,-174,43,-265,-224
24.102999999999952,-1358,-8055,-342,-52,-121,-152,53,-258,-212
24.11500000000001,-1382,-7993,-324,-22,-55,-141,42,-254,-211
24.136999999999944,-1404,-8033,-346,22,-22,-108,58,-260,-210
24.158999999999992,-1362,-8017,-326,67,-24,-60,52,-251,-221
24.170999999999935,-1310,-7977,-318,117,-35,-35,50,-255,-212
24.192999999999984,-1382,-7975,-324,150,15,-27,48,-253,-217
24.204999999999927,-1396,-8037,-346,185,60,8,49,-264,-211
24.226999999999975,-1386,-7987,-410,218,38,41,49,-264,-211
24.23899999999992,-1368,-8035,-358,258,-29,85,49,-261,-209
24.260999999999967,-1372,-8013,-324,291,-19,109,50,-268,-207
24.283000000000015,-1336,-8001,-380,315,71,124,52,-269,-213
24.29499999999996,-1372,-8043,-390,341,138,154,48,-258,-205
24.317000000000007,-1396,-8111,-360,359,174,203,50,-273,-207
24.32899999999995,-1324,-8077,-376,393,171,245,48,-260,-198
24.351,-1306,-8041,-390,409,203,256,52,-259,-194
24.362999999999943,-1310,-8049,-434,413,285,257,49,-261,-202
24.38499999999999,-1378,-8109,-418,414,315,267,61,-269,-197
24.396999999999935,-1364,-8129,-508,409,268,296,52,-267,-190
24.418999999999983,-1374,-8083,-468,408,190,317,54,-279,-194
24.440999999999917,-1350,-8045,-452,391,159,323,43,-268,-193
24.452999999999975,-1292,-8129,-528,360,182,315,42,-267,-199
24.47499999999991,-1312,-8127,-482,337,192,319,42,-264,-185
24.486999999999966,-1330,-8023,-524,320,155,325,53,-270,-179
24.509000000000015,-1256,-8073,-546,297,86,318,60,-273,-181
24.520999999999958,-1334,-8065,-476,259,80,300,60,-270,-196
24.543000000000006,-1298,-8055,-484,227,70,288,44,-274,-178
24.56499999999994,-1306,-8083,-494,198,39,279,60,-273,-186
24.576999999999998,-1326,-7999,-530,171,-7,265,60,-263,-186
24.598999999999933,-1238,-7979,-434,141,-1,253,56,-259,-182
24.61099999999999,-1316,-8001,-418,114,42,231,62,-265,-188
24.632999999999925,-1256,-7969,-470,79,93,208,60,-268,-174
24.644999999999982,-1260,-7979,-450,58,128,193,50,-268,-181
24.666999999999916,-1234,-7929,-472,38,138,174,55,-270,-181
24.688999999999965,-1228,-8029,-456,8,163,138,62,-275,-188
24.701000000000022,-1262,-7997,-504,-22,178,101,56,-261,-182
24.722999999999956,-1292,-7977,-494,-61,180,81,55,-273,-174
24.735000000000014,-1246,-8015,-528,-93,143,54,64,-264,-185
24.756999999999948,-1250,-7949,-502,-137,86,25,69,-264,-175
24.769000000000005,-1226,-7981,-532,-164,47,-13,62,-270,-179
24.79099999999994,-1210,-7923,-466,-209,21,-58,60,-270,-188
24.802999999999997,-1220,-7965,-522,-251,-16,-111,59,-269,-178
24.824999999999932,-1258,-8065,-498,-278,-86,-133,55,-263,-188
24.84699999999998,-1294,-8029,-498,-321,-164,-154,67,-265,-191
24.858999999999924,-1244,-8013,-454,-348,-239,-183,64,-261,-187
24.880999999999972,-1292,-7997,-442,-372,-269,-213,67,-278,-188
24.892999999999915,-1266,-8053,-446,-393,-278,-239,69,-264,-182
24.914999999999964,-1348,-8069,-410,-405,-272,-250,65,-270,-191
24.92700000000002,-1346,-8067,-392,-402,-263,-254,55,-260,-198
24.948999999999955,-1278,-8029,-370,-397,-229,-271,54,-264,-187
24.971000000000004,-1268,-8043,-330,-389,-156,-289,70,-273,-205
24.982999999999947,-1308,-8041,-398,-369,-84,-300,46,-260,-193
25.004999999999995,-1292,-8059,-360,-359,-38,-310,67,-258,-203
25.01699999999994,-1340,-8099,-400,-346,-29,-298,55,-263,-205
25.038999999999987,-1312,-8049,-384,-334,-49,-289,62,-260,-198
25.05099999999993,-1292,-8051,-372,-312,-54,-293,58,-255,-200
25.07299999999998,-1284,-8065,-420,-306,-39,-301,53,-263,-198
25.094999999999914,-1350,-8077,-382,-284,-34,-291,42,-254,-206
25.10699999999997,-1386,-8083,-388,-269,-66,-289,54,-256,-204
25.123997999999915,-1310,-8039,-400,-249,-103,-284,60,-265,-207
25.145999999999958,-1346,-8051,-404,-223,-125,-275,44,-264,-199
25.158000000000015,-1366,-8049,-350,-203,-138,-270,55,-260,-210
25.17999999999995,-1372,-8065,-374,-193,-174,-248,50,-258,-210
25.192000000000007,-1384,-8081,-370,-162,-236,-223,50,-268,-205
25.213999999999942,-1346,-8023,-346,-124,-256,-212,53,-260,-210
25.23599999999999,-1342,-8021,-314,-88,-204,-191,56,-256,-211
25.247999999999934,-1394,-8029,-254,-54,-146,-168,54,-259,-206
25.269999999999982,-1378,-8005,-330,-12,-94,-142,39,-254,-213
25.281999999999925,-1420,-8015,-306,30,-81,-110,50,-263,-219
25.303999999999974,-1352,-8021,-308,81,-44,-76,42,-256,-216
25.315999999999917,-1330,-7951,-322,119,18,-53,52,-261,-209
25.337999999999965,-1388,-8015,-330,159,53,-22,39,-261,-206
25.34999999999991,-1394,-8041,-370,204,63,9,46,-270,-217
25.371999999999957,-1356,-8067,-310,235,84,28,54,-254,-211
25.394000000000005,-1386,-8047,-356,266,127,47,46,-255,-205
25.40599999999995,-1364,-8055,-418,292,147,77,38,-258,-205
25.427999999999997,-1354,-8025,-424,305,135,105,42,-264,-206
25.43999999999994,-1372,-8129,-372,322,108,129,52,-267,-213
25.46199999999999,-1354,-8029,-454,330,89,157,53,-270,-203
25.473999999999933,-1334,-8077,-440,335,104,175,42,-274,-202
25.49599999999998,-1340,-8043,-440,339,109,192,47,-259,-199
25.517999999999915,-1372,-8109,-444,335,99,221,44,-264,-197
25.529999999999973,-1322,-8065,-420,343,86,233,60,-265,-200
25.55200000000002,-1330,-8095,-448,335,117,247,49,-267,-202
25.563999999999965,-1384,-8087,-440,334,138,264,61,-267,-192
25.586000000000013,-1354,-8057,-444,330,152,263,50,-275,-196
25.597999999999956,-1318,-8037,-470,317,149,269,47,-274,-187
25.620000000000005,-1310,-8103,-454,305,149,283,64,-272,-199
25.64199999999994,-1276,-8037,-476,288,150,280,56,-269,-173
25.653999999999996,-1284,-8085,-444,265,160,275,53,-280,-186
25.67599999999993,-1294,-8029,-420,243,166,275,58,-283,-186
25.687999999999988,-1288,-8011,-494,221,161,270,58,-265,-191
25.709999999999923,-1248,-8023,-482,191,152,255,59,-267,-180
25.72199999999998,-1268,-8017,-494,159,153,240,56,-267,-190
25.743999999999915,-1294,-8025,-490,125,147,231,62,-265,-184
25.755999999999972,-1268,-8001,-518,85,117,219,66,-272,-187
25.77800000000002,-1246,-8003,-516,54,59,200,56,-264,-190
25.799999999999955,-1218,-8011,-482,23,30,166,65,-265,-193
25.812000000000012,-1276,-7947,-446,-10,25,140,47,-272,-187
25.833999999999946,-1260,-7997,-504,-46,39,119,52,-272,-182
25.846000000000004,-1298,-7971,-510,-76,34,101,61,-256,-178
25.867999999999938,-1314,-7995,-486,-106,47,87,58,-268,-174
25.879999999999995,-1248,-7975,-440,-132,47,69,65,-273,-184
25.90199999999993,-1280,-7967,-494,-156,56,23,60,-260,-176
25.923999999999978,-1276,-7963,-454,-181,75,-10,65,-260,-186
25.935999999999922,-1254,-7951,-450,-209,63,-30,59,-264,-182
25.95799999999997,-1244,-8017,-446,-235,33,-52,61,-264,-185
25.969999999999914,-1280,-7975,-410,-256,-12,-82,56,-267,-190
25.991999999999962,-1240,-7993,-476,-279,-40,-118,58,-275,-186
26.00400000000002,-1312,-8011,-452,-302,-69,-150,69,-264,-182
26.025999999999954,-1274,-7977,-422,-322,-106,-164,61,-269,-194
26.03800000000001,-1272,-7989,-454,-338,-165,-178,60,-263,-196
26.059999999999945,-1268,-7943,-386,-349,-200,-209,58,-260,-186
26.081999999999994,-1342,-8035,-390,-364,-180,-231,49,-269,-202
26.093999999999937,-1324,-8071,-400,-371,-174,-242,46,-270,-186
26.115999999999985,-1292,-8093,-388,-373,-183,-240,58,-263,-196
26.12799999999993,-1308,-8005,-368,-358,-212,-233,56,-259,-197
26.149999999999977,-1306,-8001,-356,-340,-201,-250,58,-265,-196
26.16199999999992,-1374,-8041,-326,-333,-122,-273,55,-263,-198
26.18399999999997,-1348,-8085,-316,-316,-68,-276,60,-260,-207
26.206000000000017,-1370,-8031,-400,-280,-75,-253,52,-261,-199
26.21799999999996,-1330,-7991,-324,-258,-98,-261,55,-265,-210
26.24000000000001,-1310,-8081,-354,-234,-75,-268,58,-260,-196
26.251999999999953,-1370,-8075,-346,-215,-29,-269,59,-259,-206
26.274,-1362,-8081,-398,-204,-34,-257,50,-270,-205
26.285999999999945,-1354,-8081,-342,-174,-95,-231,55,-263,-210
26.307999999999993,-1314,-8009,-366,-149,-139,-213,54,-267,-213
26.329999999999927,-1328,-8045,-362,-130,-109,-223,54,-259,-206
26.341999999999985,-1378,-8005,-366,-106,-65,-219,55,-250,-205
26.36399999999992,-1352,-8083,-408,-85,-87,-188,52,-267,-211
26.375999999999976,-1388,-8051,-404,-52,-163,-159,48,-258,-212
26.39799999999991,-1326,-8009,-362,-17,-191,-149,50,-263,-205
26.409999999999968,-1404,-7987,-304,17,-133,-153,47,-254,-211
26.432000000000016,-1392,-8071,-326,48,-75,-129,49,-277,-204
26.44399999999996,-1366,-8047,-342,80,-69,-101,48,-268,-207
26.466000000000008,-1354,-8033,-332,128,-96,-59,48,-255,-217
26.487999999999943,-1364,-7969,-338,165,-59,-34,52,-269,-206
26.5,-1316,-8017,-330,187,19,-29,48,-263,-205
26.521999999999935,-1374,-8039,-320,215,60,-12,50,-275,-203
26.533999999999992,-1352,-8083,-370,247,63,21,53,-263,-205
26.555999999999926,-1388,-8043,-400,271,67,67,55,-270,-193
26.567999999999984,-1364,-8029,-360,287,87,93,49,-264,-206
26.589999999999918,-1364,-8033,-348,303,136,101,52,-264,-202
26.611999999999966,-1394,-8037,-402,307,172,114,44,-274,-202
26.62399999999991,-1304,-8057,-456,321,164,147,54,-269,-194
26.645999999999958,-1336,-8073,-470,329,141,178,41,-263,-196
26.658000000000015,-1322,-8041,-406,327,129,185,53,-265,-205
26.67999999999995,-1342,-8021,-458,327,149,180,46,-265,-196
26.692000000000007,-1352,-8067,-462,310,160,185,54,-269,-192
26.713999999999942,-1356,-8087,-458,295,126,200,54,-256,-202
26.726290999999947,-1362,-8083,-492,284,56,222,54,-267,-185
26.747999999999934,-1318,-7985,-468,264,11,233,43,-263,-193
26.769999999999982,-1244,-8009,-504,243,18,226,53,-273,-193
26.781999999999925,-1366,-8033,-478,217,65,219,48,-278,-191
26.803999999999974,-1364,-8085,-440,200,90,243,47,-261,-185
26.815999999999917,-1298,-7979,-458,189,62,252,48,-270,-191
26.837999999999965,-1314,-7977,-454,168,99,236,58,-275,-188
26.84999999999991,-1280,-7991,-466,150,183,219,50,-275,-184
26.871999999999957,-1320,-7975,-472,126,218,207,60,-268,-186
26.894000000000005,-1276,-8043,-496,104,172,212,50,-265,-179
26.90599999999995,-1302,-7973,-516,77,144,201,56,-272,-190
26.927999999999997,-1250,-8005,-468,52,136,165,54,-269,-180
26.93999999999994,-1258,-7949,-472,14,160,154,62,-268,-188
26.96199999999999,-1260,-8001,-492,-19,143,137,58,-258,-176
26.973999999999933,-1276,-7993,-502,-54,107,114,70,-268,-186
26.99599999999998,-1264,-7975,-552,-84,45,96,58,-268,-181
27.017999999999915,-1290,-7971,-492,-126,47,88,60,-275,-184
27.029999999999973,-1272,-7957,-496,-153,30,49,55,-263,-186
27.05200000000002,-1276,-7985,-462,-187,1,19,58,-263,-188
27.063999999999965,-1274,-8003,-520,-209,-37,11,58,-270,-179
27.086000000000013,-1254,-8005,-452,-237,-66,0,64,-267,-192
27.097999999999956,-1264,-8059,-500,-256,-77,-38,50,-275,-191
27.124998000000005,-1254,-7973,-444,-267,-66,-62,62,-270,-191
27.136999999999944,-1336,-7979,-446,-280,-48,-84,69,-261,-194
27.158999999999992,-1282,-8005,-410,-293,-45,-112,60,-255,-198
27.170999999999935,-1288,-7979,-490,-297,-62,-126,60,-270,-181
27.192999999999984,-1252,-8055,-430,-305,-60,-137,67,-268,-191
27.204999999999927,-1322,-8011,-432,-310,-55,-156,60,-268,-200
27.226999999999975,-1340,-7985,-412,-313,-73,-169,54,-269,-199
27.23899999999992,-1296,-8043,-408,-313,-72,-175,55,-270,-191
27.260999999999967,-1304,-8041,-358,-312,-72,-181,54,-261,-199
27.283000000000015,-1340,-8007,-380,-302,-73,-205,65,-265,-203
27.29499999999996,-1294,-8021,-370,-298,-87,-223,60,-258,-200
27.317000000000007,-1314,-8033,-388,-293,-99,-235,60,-255,-200
27.32899999999995,-1282,-8021,-406,-277,-146,-229,54,-254,-213
27.351,-1362,-8037,-400,-268,-186,-223,62,-268,-203
27.362999999999943,-1326,-8059,-352,-249,-207,-225,61,-259,-204
27.38499999999999,-1316,-7965,-360,-223,-182,-229,56,-254,-213
27.396999999999935,-1370,-8003,-350,-209,-115,-229,61,-261,-209
27.418999999999983,-1332,-8057,-354,-168,-118,-224,49,-261,-206
27.440999999999917,-1330,-8023,-360,-143,-119,-227,53,-253,-203
27.452999999999975,-1352,-8033,-348,-121,-81,-209,47,-267,-206
27.47499999999991,-1358,-8075,-368,-94,-89,-188,49,-259,-206
27.486999999999966,-1358,-7995,-388,-66,-110,-192,54,-259,-211
27.509000000000015,-1334,-8035,-338,-31,-110,-170,47,-256,-206
27.520999999999958,-1348,-8049,-332,-9,-77,-147,53,-260,-198
27.543000000000006,-1372,-8025,-392,23,-60,-136,61,-256,-204
27.56499999999994,-1360,-8025,-338,64,-43,-113,46,-268,-205
27.576999999999998,-1398,-8003,-344,94,-14,-115,47,-264,-209
27.598999999999933,-1324,-7999,-398,117,2,-101,46,-253,-205
27.61099999999999,-1384,-8025,-378,147,-11,-71,38,-265,-210
27.632999999999925,-1388,-8085,-414,167,-31,-47,48,-275,-205
27.644999999999982,-1340,-8025,-392,190,-42,-30,50,-255,-205
27.666999999999916,-1338,-8013,-358,208,-38,-14,52,-254,-206
27.678999999999974,-1334,-8063,-396,225,-35,0,56,-264,-209
27.701000000000022,-1368,-8061,-390,247,-20,21,55,-270,-205
27.722999999999956,-1338,-8059,-380,261,-9,47,49,-267,-202
27.735000000000014,-1342,-8025,-388,272,33,74,56,-264,-206
27.756999999999948,-1340,-8035,-436,282,82,91,58,-260,-193
27.769000000000005,-1364,-8087,-438,292,107,87,50,-273,-203
27.79099999999994,-1378,-8085,-422,290,119,115,53,-268,-210
27.802999999999997,-1364,-8065,-426,293,93,155,53,-265,-193
27.824999999999932,-1288,-8013,-434,296,84,156,64,-267,-194
27.84699999999998,-1308,-8051,-386,285,129,159,49,-272,-199
27.858999999999924,-1346,-8025,-394,282,177,167,44,-254,-199
27.880999999999972,-1326,-8095,-478,263,207,179,50,-280,-184
27.892999999999915,-1332,-8057,-472,242,211,196,49,-259,-182
27.914999999999964,-1314,-8031,-472,223,200,220,52,-277,-180
27.92700000000002,-1310,-8085,-478,187,210,224,47,-269,-190
27.948999999999955,-1294,-8037,-494,150,192,249,56,-274,-185
27.971000000000004,-1310,-8011,-502,144,122,262,48,-270,-184
27.982999999999947,-1258,-7951,-416,132,78,216,56,-282,-187
28.004999999999995,-1222,-7995,-420,122,119,164,56,-269,-190
28.01699999999994,-1278,-7935,-466,108,165,135,54,-264,-182
28.038999999999987,-1326,-8061,-536,84,114,127,59,-279,-178
28.05099999999993,-1256,-7971,-492,69,-14,127,54,-267,-182
28.07299999999998,-1292,-7979,-460,34,-56,91,50,-270,-188
28.084999999999923,-1314,-8003,-474,-27,-9,72,56,-264,-178
28.10699999999997,-1356,-8061,-516,-72,-25,89,54,-264,-187
28.12900000000002,-1340,-8001,-474,-108,-86,108,66,-277,-185
28.140999999999963,-1280,-8059,-430,-147,-64,116,55,-268,-184
28.16300000000001,-1320,-8007,-464,-198,67,125,53,-263,-181
28.174999999999955,-1312,-8009,-442,-212,117,125,66,-274,-185
28.197000000000003,-1248,-8001,-410,-197,72,100,61,-269,-185
28.208999999999946,-1226,-7903,-378,-184,62,49,59,-272,-180
28.230999999999995,-1234,-7945,-384,-184,153,-13,55,-258,-196
28.25299999999993,-1228,-7959,-482,-181,190,-59,59,-261,-194
28.264999999999986,-1304,-7977,-494,-170,93,-105,64,-261,-194
28.28699999999992,-1272,-7997,-478,-184,-16,-149,62,-263,-188
28.298999999999978,-1308,-8063,-514,-226,-55,-160,64,-259,-190
28.320999999999913,-1286,-8111,-508,-274,-120,-142,60,-265,-193
28.33299999999997,-1328,-8073,-518,-321,-254,-119,56,-267,-199
28.355000000000018,-1290,-8031,-468,-348,-371,-109,56,-277,-194
28.376999999999953,-1302,-8003,-366,-371,-355,-129,55,-260,-191
28.38900000000001,-1286,-8007,-340,-376,-282,-146,56,-264,-197
28.410999999999945,-1384,-8053,-370,-369,-229,-153,58,-248,-198
28.423000000000002,-1262,-8031,-346,-344,-213,-141,64,-264,-204
28.444999999999936,-1290,-8027,-294,-300,-168,-127,56,-264,-197
28.456999999999994,-1296,-7955,-314,-262,-58,-142,66,-259,-199
28.478999999999928,-1292,-7991,-274,-217,49,-173,65,-268,-198
28.490999999999985,-1296,-7959,-294,-167,110,-199,60,-255,-203
28.51299999999992,-1242,-8021,-354,-129,125,-214,55,-253,-203
28.534999999999968,-1328,-8033,-386,-112,109,-201,69,-267,-213
28.546999999999912,-1366,-8023,-420,-99,63,-186,54,-261,-202
28.56899999999996,-1342,-8039,-406,-95,-9,-183,53,-258,-207
28.581000000000017,-1338,-8059,-426,-102,-42,-181,58,-265,-205
28.602999999999952,-1358,-8017,-394,-104,-78,-160,61,-264,-206
28.61500000000001,-1362,-8039,-396,-103,-151,-137,46,-250,-205
28.636999999999944,-1334,-8029,-400,-96,-220,-130,48,-263,-207
28.658999999999992,-1310,-7949,-390,-67,-252,-131,67,-258,-205
28.670999999999935,-1344,-7957,-354,-42,-232,-124,54,-249,-213
28.692999999999984,-1320,-7985,-294,-10,-231,-124,52,-264,-211
28.704999999999927,-1328,-8027,-320,32,-241,-114,62,-270,-217
28.726999999999975,-1346,-7965,-338,85,-212,-103,50,-255,-212
28.73899999999992,-1366,-8055,-280,128,-131,-113,52,-264,-213
28.760999999999967,-1304,-8049,-284,163,-16,-102,48,-260,-210
28.773284999999987,-1370,-8015,-378,211,9,-76,56,-267,-209
28.79499999999996,-1406,-8051,-346,231,53,-51,50,-260,-207
28.817000000000007,-1378,-8051,-432,241,87,-22,59,-272,-204
28.82899999999995,-1370,-8019,-440,244,121,12,56,-279,-213
28.851,-1406,-8047,-442,236,132,38,54,-261,-197
28.862999999999943,-1342,-8071,-420,232,100,71,52,-264,-197
28.88499999999999,-1356,-8037,-406,238,76,101,59,-267,-204
28.896999999999935,-1332,-8059,-384,245,96,113,52,-274,-192
28.918999999999983,-1322,-8019,-402,250,137,105,44,-267,-197
28.940999999999917,-1298,-8007,-434,251,144,93,47,-261,-202
28.952999999999975,-1280,-8033,-490,258,96,90,56,-267,-192
28.97499999999991,-1334,-7995,-432,251,39,86,60,-268,-191
28.986999999999966,-1378,-8041,-480,240,-13,100,48,-280,-193
29.009000000000015,-1322,-8021,-456,228,-52,119,58,-273,-193
29.020999999999958,-1340,-8015,-454,213,-48,133,50,-268,-191
29.043000000000006,-1348,-8063,-426,197,-19,141,50,-283,-186
29.06499999999994,-1352,-8015,-416,189,49,142,52,-269,-180
29.076999999999998,-1318,-8053,-426,156,138,144,61,-264,-185
29.098999999999933,-1320,-8053,-456,141,161,169,56,-272,-192
29.11099999999999,-1298,-7971,-470,127,123,176,56,-272,-192
29.127997999999934,-1308,-8009,-464,109,100,163,58,-263,-181
29.149999999999977,-1292,-8017,-424,86,118,151,59,-272,-178
29.16199999999992,-1306,-8003,-460,64,133,156,52,-264,-187
29.18399999999997,-1276,-7987,-460,51,114,150,55,-263,-186
29.206000000000017,-1250,-7987,-450,34,111,135,52,-277,-187
29.21799999999996,-1302,-7971,-476,12,145,112,62,-273,-188
29.24000000000001,-1238,-8005,-466,-19,187,80,58,-263,-181
29.251999999999953,-1318,-8021,-516,-52,145,74,55,-273,-191
29.274,-1298,-8049,-496,-84,43,78,54,-274,-190
29.285999999999945,-1282,-8075,-516,-124,-32,76,50,-268,-186
29.307999999999993,-1316,-7983,-546,-156,-73,61,56,-259,-187
29.320285000000013,-1290,-8045,-440,-185,-74,42,61,-277,-194
29.341999999999985,-1290,-8009,-436,-207,-44,33,59,-272,-202
29.36399999999992,-1318,-8013,-448,-213,-30,20,55,-273,-191
29.375999999999976,-1268,-7947,-418,-220,-3,1,52,-272,-202
29.39799999999991,-1262,-7957,-406,-225,46,-15,73,-269,-185
29.409999999999968,-1270,-7999,-418,-238,54,-44,55,-270,-191
29.432000000000016,-1308,-8025,-406,-236,8,-53,61,-269,-190
29.44399999999996,-1304,-8021,-426,-240,-29,-61,50,-263,-196
29.466000000000008,-1270,-7997,-406,-249,-23,-73,56,-261,-197
29.487999999999943,-1322,-8087,-394,-255,-14,-79,55,-258,-196
29.5,-1362,-8055,-404,-260,1,-85,59,-259,-199
29.521999999999935,-1296,-8017,-388,-264,-1,-96,56,-259,-192
29.533999999999992,-1294,-7967,-396,-253,-2,-99,64,-264,-192
29.555999999999926,-1326,-8015,-354,-256,-11,-119,64,-259,-204
29.567999999999984,-1304,-8015,-374,-251,-38,-130,55,-273,-196
29.589999999999918,-1332,-8049,-440,-244,-83,-128,58,-260,-203
29.611999999999966,-1326,-8049,-406,-231,-137,-131,47,-259,-202
29.62399999999991,-1356,-7929,-354,-213,-164,-148,54,-254,-206
29.645999999999958,-1338,-7979,-350,-199,-128,-165,62,-260,-210
29.658000000000015,-1318,-8091,-404,-183,-112,-146,54,-249,-194
29.67999999999995,-1218,-7955,-462,-129,-249,-137,56,-254,-213
29.692000000000007,-1320,-7933,-334,-99,-262,-191,61,-256,-209
29.713999999999942,-1438,-8041,-326,-111,-54,-250,56,-261,-190
29.726,-1398,-8087,-426,-94,17,-186,52,-261,-206
29.747999999999934,-1382,-8115,-454,-69,-194,-135,61,-267,-204
29.769999999999982,-1370,-8047,-378,-63,-279,-116,52,-261,-204
29.781999999999925,-1406,-8041,-280,-51,-149,-90,59,-261,-209
29.803999999999974,-1352,-8051,-332,-56,23,-59,56,-249,-202
29.815999999999917,-1374,-8051,-322,3,3,-29,62,-250,-207
29.837999999999965,-1294,-7961,-270,60,1,-27,58,-260,-205
29.84999999999991,-1302,-7975,-222,101,146,-53,59,-254,-204
29.871999999999957,-1216,-7951,-330,139,272,-78,53,-265,-207
29.894000000000005,-1308,-8003,-404,174,205,-98,58,-260,-212
29.90599999999995,-1360,-8025,-366,215,40,-83,59,-267,-211
29.927999999999997,-1342,-8041,-444,212,-20,-61,58,-265,-200
29.93999999999994,-1364,-8069,-432,209,-34,-59,52,-259,-204
29.96199999999999,-1356,-8019,-472,202,-84,-38,46,-258,-203
29.973999999999933,-1416,-8045,-428,208,-158,-38,58,-270,-198
29.99599999999998,-1334,-8027,-388,183,-128,-17,50,-255,-196
30.017999999999915,-1340,-8057,-412,181,-108,14,50,-263,-188
30.029999999999973,-1364,-8073,-458,165,-108,46,55,-268,-203
30.05200000000002,-1376,-8015,-406,170,-138,68,62,-253,-200
30.063999999999965,-1334,-7985,-362,188,-127,91,54,-264,-206
30.086000000000013,-1370,-7969,-316,202,-27,91,61,-269,-199
30.097999999999956,-1290,-7997,-348,226,103,85,52,-264,-204
30.120000000000005,-1364,-8007,-380,255,188,83,44,-259,-192
30.131999999999948,-1318,-8013,-350,269,261,92,56,-277,-185
30.153999999999996,-1286,-8007,-448,273,306,93,47,-269,-190
30.17599999999993,-1276,-8017,-484,268,306,90,58,-273,-191
30.187999999999988,-1296,-8021,-500,247,264,80,44,-267,-199
30.209999999999923,-1400,-8069,-526,197,199,97,54,-269,-185
30.22199999999998,-1336,-8047,-596,152,65,127,54,-274,-192
30.243999999999915,-1300,-7991,-520,108,-52,134,47,-269,-185
30.255999999999972,-1322,-7981,-442,63,-83,123,54,-254,-187
30.27800000000002,-1338,-7993,-426,27,-45,113,61,-267,-194
30.299999999999955,-1322,-8023,-438,-4,-23,127,54,-267,-185
30.312000000000012,-1274,-8017,-482,-16,-76,134,60,-255,-181
30.333999999999946,-1256,-7945,-432,-25,-105,117,64,-261,-192
30.346000000000004,-1270,-7961,-382,-25,-33,77,59,-269,-185
30.367999999999938,-1274,-7989,-404,-33,60,51,62,-270,-181
30.379999999999995,-1358,-8021,-452,-39,65,55,52,-259,-185
30.40199999999993,-1346,-8063,-398,-49,60,69,61,-261,-199
30.423999999999978,-1258,-8009,-418,-66,104,76,50,-265,-188
30.435999999999922,-1208,-7969,-438,-89,178,57,53,-265,-188
30.45799999999997,-1304,-8025,-464,-117,210,39,50,-278,-184
30.469999999999914,-1306,-8031,-480,-141,177,35,61,-264,-192
30.491999999999962,-1310,-8025,-444,-171,105,43,59,-267,-192
30.50400000000002,-1304,-8029,-534,-201,58,46,60,-268,-184
30.525999999999954,-1270,-8037,-426,-227,19,30,58,-268,-186
30.53800000000001,-1274,-7951,-446,-244,-51,4,53,-268,-198
30.559999999999945,-1284,-7959,-454,-251,-72,-25,56,-267,-194
30.581999999999994,-1280,-8007,-424,-250,-102,-58,60,-268,-203
30.593999999999937,-1270,-7949,-432,-249,-143,-84,65,-268,-198
30.615999999999985,-1292,-7995,-394,-255,-156,-105,54,-261,-199
30.62799999999993,-1304,-8053,-412,-251,-143,-106,56,-259,-202
30.649999999999977,-1278,-8007,-430,-254,-158,-97,61,-259,-197
30.66199999999992,-1346,-7989,-382,-274,-114,-88,58,-258,-205
30.68399999999997,-1224,-8017,-400,-235,-191,-123,59,-269,-194
30.706000000000017,-1308,-8057,-354,-246,-101,-112,62,-263,-205
30.71799999999996,-1454,-8107,-382,-259,64,-55,62,-268,-205
30.74000000000001,-1278,-7969,-420,-222,6,-38,55,-268,-203
30.751999999999953,-1328,-7993,-348,-195,-55,-59,65,-255,-196
30.774,-1322,-7989,-332,-173,49,-53,58,-265,-205
30.785999999999945,-1338,-7987,-360,-142,163,-117,60,-258,-203
30.807999999999993,-1300,-7991,-382,-124,166,-102,48,-258,-215
30.819999999999936,-1326,-8031,-396,-74,38,-92,49,-254,-199
30.841999999999985,-1326,-7987,-364,-75,13,-109,66,-267,-202
30.86399999999992,-1296,-7999,-354,-59,-9,-126,58,-263,-215
30.875999999999976,-1310,-8045,-450,-62,-23,-110,52,-272,-211
30.89799999999991,-1334,-8055,-430,-53,-111,-97,58,-258,-198
30.909999999999968,-1352,-8031,-406,-48,-162,-72,60,-258,-212
30.932000000000016,-1384,-8023,-356,-30,-159,-57,47,-259,-204
30.94399999999996,-1326,-8025,-346,-21,-88,-59,52,-259,-206
30.966000000000008,-1306,-8033,-360,20,-75,-61,56,-249,-211
30.987999999999943,-1286,-7985,-352,61,-88,-64,53,-253,-205
31.0,-1304,-7949,-332,93,-46,-79,48,-248,-203
31.021999999999935,-1316,-8003,-296,129,11,-65,52,-259,-211
31.033999999999992,-1336,-7985,-352,162,36,-57,58,-258,-217
31.055999999999926,-1352,-8025,-334,182,75,-50,56,-264,-204
31.067999999999984,-1296,-7985,-392,213,88,-42,52,-264,-204
31.089999999999918,-1302,-8045,-382,214,107,-43,56,-269,-199
31.111999999999966,-1360,-8047,-410,216,98,-29,50,-258,-200
31.12899799999991,-1388,-8095,-484,218,33,-3,50,-255,-198
31.140999999999963,-1326,-8053,-450,215,-26,5,54,-269,-202
31.16300000000001,-1322,-8013,-428,205,-25,8,56,-267,-199
31.174999999999955,-1324,-7997,-430,198,-8,11,50,-268,-196
31.197000000000003,-1348,-8047,-442,192,-14,16,46,-268,-200
31.208999999999946,-1350,-8039,-432,194,-48,37,53,-263,-198
31.230999999999995,-1296,-8051,-428,188,-55,45,56,-264,-194
31.25299999999993,-1308,-7981,-382,193,-15,49,52,-269,-197
31.264999999999986,-1292,-7981,-364,197,-2,40,47,-274,-190
31.28699999999992,-1298,-7981,-412,204,21,29,49,-277,-192
31.298999999999978,-1356,-8017,-436,199,49,27,50,-263,-191
31.320999999999913,-1366,-8047,-440,189,100,43,54,-279,-192
31.33299999999997,-1318,-8013,-426,171,91,50,59,-272,-197
31.355000000000018,-1276,-8013,-522,158,75,59,46,-270,-184
31.366999999999962,-1288,-8019,-480,141,73,57,54,-274,-194
31.38900000000001,-1320,-8013,-488,104,77,52,49,-272,-192
31.410999999999945,-1320,-8065,-478,74,60,65,54,-274,-192
31.423000000000002,-1330,-8009,-484,40,32,90,54,-259,-185
31.444999999999936,-1276,-7987,-492,20,-3,91,48,-270,-184
31.456999999999994,-1282,-7965,-444,-10,7,84,54,-272,-185
31.478999999999928,-1306,-7999,-414,-14,16,63,61,-264,-182
31.490999999999985,-1298,-8005,-498,-33,32,34,71,-274,-185
31.51299999999992,-1314,-7973,-466,-45,40,35,56,-272,-199
31.534999999999968,-1320,-7991,-416,-69,30,43,50,-273,-186
31.546999999999912,-1330,-8003,-442,-79,15,39,60,-270,-181
31.56899999999996,-1292,-7999,-444,-99,9,22,55,-270,-188
31.581000000000017,-1278,-8011,-458,-121,40,5,58,-270,-186
31.602999999999952,-1340,-8023,-430,-159,54,11,62,-268,-186
31.61500000000001,-1336,-8081,-452,-176,24,38,58,-270,-196
31.636999999999944,-1342,-8015,-418,-189,-24,46,58,-273,-186
31.658999999999992,-1254,-7977,-364,-206,-5,21,48,-265,-193
31.670999999999935,-1334,-8029,-424,-224,53,3,55,-263,-196
31.692999999999984,-1306,-8047,-416,-227,56,6,47,-269,-192
31.704999999999927,-1342,-8015,-446,-228,0,12,43,-273,-198
31.726999999999975,-1284,-7999,-404,-222,-17,11,49,-274,-190
31.73899999999992,-1306,-7983,-362,-222,10,-17,49,-272,-199
31.760999999999967,-1324,-8025,-402,-224,52,-46,54,-261,-192
31.77299999999991,-1322,-7979,-452,-222,31,-50,52,-256,-190
31.79499999999996,-1362,-8041,-414,-218,-16,-43,61,-261,-197
31.817000000000007,-1298,-8063,-412,-219,-36,-39,58,-273,-200
31.82899999999995,-1278,-8013,-422,-214,-52,-53,56,-259,-199
31.851,-1274,-8047,-408,-218,-51,-69,56,-261,-197
31.862999999999943,-1352,-8123,-430,-220,-61,-68,55,-270,-203
31.88499999999999,-1382,-8073,-384,-211,-99,-46,59,-261,-204
31.896999999999935,-1340,-8027,-354,-197,-130,-28,53,-258,-207
31.918999999999983,-1302,-7985,-304,-178,-93,-35,65,-255,-203
31.940999999999917,-1312,-7969,-286,-151,-18,-51,47,-256,-199
31.952999999999975,-1314,-7995,-328,-123,41,-70,58,-265,-212
31.97499999999991,-1346,-8045,-366,-94,47,-65,56,-267,-211
31.986999999999966,-1336,-8017,-440,-63,9,-51,54,-267,-206
32.009000000000015,-1332,-7963,-312,-42,-15,-57,52,-254,-209
32.02099999999996,-1320,-8001,-354,-23,-7,-71,47,-256,-209
32.043000000000006,-1348,-8025,-424,-11,17,-77,55,-255,-200
32.06499999999994,-1380,-8071,-412,6,-1,-54,55,-265,-222
32.077,-1354,-8019,-378,27,-42,-36,56,-259,-202
32.09899999999993,-1334,-7991,-364,40,-46,-36,44,-259,-204
32.11099999999999,-1326,-8039,-388,58,-25,-47,50,-263,-205
32.132999999999925,-1302,-8009,-400,71,-17,-53,58,-260,-200
32.14499999999998,-1318,-8013,-438,96,-62,-50,53,-268,-200
32.166999999999916,-1352,-8021,-364,116,-86,-32,48,-270,-210
32.178999999999974,-1300,-8051,-382,136,-76,-35,53,-268,-200
32.20100000000002,-1344,-8005,-376,151,-42,-42,48,-260,-207
32.222999999999956,-1328,-8025,-336,166,-9,-44,53,-255,-210
32.235000000000014,-1384,-8047,-402,185,8,-26,50,-270,-205
32.25699999999995,-1328,-8105,-394,191,20,-17,56,-259,-197
32.269000000000005,-1360,-8037,-390,202,37,-6,56,-267,-213
32.29099999999994,-1352,-8007,-440,206,52,-5,53,-268,-198
32.303,-1298,-8033,-436,212,46,-13,64,-274,-199
32.32499999999993,-1292,-8041,-448,208,24,-6,56,-256,-199
32.34699999999998,-1344,-8079,-450,199,-1,5,58,-265,-203
32.358999999999924,-1350,-8065,-428,193,-9,18,53,-273,-198
32.38099999999997,-1268,-8011,-434,189,-15,20,53,-263,-198
32.392999999999915,-1292,-7983,-460,183,-11,7,65,-270,-203
32.414999999999964,-1310,-8041,-438,180,-4,2,50,-268,-191
32.42700000000002,-1304,-8011,-496,162,-3,5,50,-270,-191
32.448999999999955,-1314,-8031,-444,148,-22,16,56,-264,-197
32.46129099999996,-1290,-7991,-428,133,-47,25,61,-269,-182
32.48299999999995,-1276,-7971,-426,118,-49,23,56,-269,-199
32.504999999999995,-1302,-7973,-456,105,-13,15,47,-267,-192
32.51699999999994,-1344,-8047,-418,86,22,22,53,-265,-198
32.53899999999999,-1292,-7989,-430,81,19,29,53,-273,-191
32.55099999999993,-1330,-8015,-468,59,23,27,44,-261,-190
32.57299999999998,-1296,-7991,-442,35,51,23,55,-273,-181
32.58499999999992,-1306,-7979,-440,20,57,29,50,-273,-193
32.60699999999997,-1306,-7971,-458,2,32,26,54,-269,-182
32.62900000000002,-1330,-7985,-478,-20,15,28,44,-272,-192
32.64099999999996,-1306,-7999,-426,-38,30,24,59,-274,-190
32.66300000000001,-1338,-8055,-438,-72,49,23,49,-264,-180
32.674999999999955,-1264,-8001,-466,-81,13,26,52,-264,-175
32.697,-1358,-8011,-454,-99,16,16,46,-278,-179
32.708999999999946,-1302,-8001,-446,-122,36,8,54,-272,-190
32.730999999999995,-1302,-8009,-460,-144,41,14,49,-259,-197
32.75299999999993,-1284,-7999,-442,-154,-4,15,56,-267,-192
32.764999999999986,-1288,-8053,-420,-175,-35,14,50,-268,-184
32.78699999999992,-1320,-7953,-458,-188,-17,10,54,-267,-194
32.79899999999998,-1296,-8057,-420,-203,1,3,50,-263,-188
32.82099999999991,-1290,-8069,-402,-214,-7,1,53,-268,-179
32.83299999999997,-1306,-8065,-362,-208,-21,6,55,-258,-198
32.85500000000002,-1272,-8001,-384,-220,6,2,49,-269,-199
32.87699999999995,-1296,-7997,-406,-214,27,-2,61,-269,-202
32.88900000000001,-1306,-8019,-406,-212,20,-14,44,-274,-199
32.910999999999945,-1314,-7987,-354,-206,11,-29,64,-269,-199
32.923,-1350,-8011,-380,-208,-2,-27,53,-255,-205
32.944999999999936,-1366,-8067,-394,-207,-33,-24,48,-265,-198
32.956999999999994,-1292,-8037,-442,-205,-64,-16,55,-273,-198
32.97899999999993,-1264,-8033,-410,-199,-76,-17,58,-260,-196
32.990999999999985,-1344,-7983,-406,-194,-47,-18,62,-258,-198
33.01299999999992,-1288,-8027,-364,-183,-11,-12,58,-268,-207
33.03499999999997,-1296,-8007,-404,-164,10,-17,50,-260,-196
33.04699999999991,-1298,-7981,-408,-154,19,-9,54,-261,-209
33.06899999999996,-1334,-7983,-386,-136,19,-5,49,-259,-204
33.08100000000002,-1356,-7997,-382,-123,41,4,47,-264,-197
33.10299999999995,-1296,-8013,-390,-85,-21,-16,54,-261,-197
33.11500000000001,-1266,-7973,-366,-72,-15,-45,55,-250,-200
33.13199799999995,-1330,-7999,-378,-42,4,-50,59,-267,-211
33.153999999999996,-1380,-8015,-400,-34,-14,-46,38,-258,-203
33.17599999999993,-1300,-8041,-364,-14,-66,-36,56,-256,-209
33.18799999999999,-1320,-7989,-346,5,-81,-26,53,-260,-207
33.20999999999992,-1300,-7977,-360,7,-35,-33,53,-260,-207
33.22199999999998,-1322,-8007,-396,26,-42,-30,62,-260,-207
33.243999999999915,-1300,-8019,-376,44,-67,-20,49,-261,-213
33.25599999999997,-1392,-8025,-344,57,-64,-10,58,-250,-207
33.27800000000002,-1292,-8053,-330,73,-28,4,54,-264,-206
33.299999999999955,-1322,-8025,-350,96,-12,-1,49,-254,-199
33.31200000000001,-1308,-7959,-370,123,-7,-10,56,-269,-206
33.333999999999946,-1276,-8011,-372,151,40,-23,65,-258,-198
33.346000000000004,-1350,-8009,-338,163,79,-24,55,-255,-205
33.36799999999994,-1290,-7997,-406,187,75,-17,64,-251,-197
33.379999999999995,-1306,-7989,-414,199,37,-33,59,-269,-202
33.40199999999993,-1318,-8041,-446,191,34,-38,54,-256,-202
33.41399999999999,-1336,-8029,-474,184,2,-28,58,-268,-203
33.43599999999992,-1340,-8031,-456,171,-56,-11,62,-265,-205
33.45799999999997,-1328,-8031,-438,171,-114,1,53,-265,-193
33.469999999999914,-1310,-7995,-380,162,-112,-1,47,-272,-192
33.49199999999996,-1326,-8035,-396,149,-42,-8,58,-270,-184
33.50400000000002,-1372,-7993,-460,145,-10,-9,65,-268,-196
33.525999999999954,-1370,-7995,-432,143,3,11,49,-261,-199
33.53800000000001,-1378,-7945,-486,153,-43,6,55,-270,-196
33.559999999999945,-1244,-7997,-456,151,-23,-23,64,-277,-190
33.581999999999994,-1306,-7997,-376,148,31,-30,52,-269,-197
33.59399999999994,-1334,-8013,-418,142,22,-14,66,-264,-199
33.615999999999985,-1274,-7999,-466,131,-25,-21,64,-269,-194
33.62799999999993,-1290,-7997,-408,120,-16,-21,49,-264,-182
33.64999999999998,-1320,-8009,-388,96,48,-16,59,-272,-182
33.66199999999992,-1326,-8069,-446,66,61,-14,60,-273,-200
33.68399999999997,-1342,-8025,-502,48,8,8,56,-267,-180
33.70600000000002,-1272,-8015,-480,25,-22,18,55,-260,-181
33.71799999999996,-1282,-7971,-446,-3,13,14,67,-273,-196
33.74000000000001,-1330,-8023,-458,-17,5,4,53,-275,-193
33.75199999999995,-1268,-7979,-494,-37,-18,-13,64,-267,-199
33.774,-1314,-7955,-422,-45,-34,-11,42,-274,-194
33.785999999999945,-1294,-7935,-434,-59,-17,-7,50,-273,-186
33.80799999999999,-1266,-7995,-424,-71,-14,-13,55,-270,-188
33.819999999999936,-1316,-7925,-474,-80,-9,-28,55,-265,-188
33.841999999999985,-1316,-8007,-450,-95,11,-25,49,-272,-190
33.86399999999992,-1312,-8071,-450,-125,42,-21,44,-274,-192
33.875999999999976,-1332,-8011,-412,-135,8,-4,65,-270,-188
33.89799999999991,-1318,-8053,-448,-152,-25,0,46,-273,-188
33.90999999999997,-1370,-7967,-402,-175,-2,0,53,-260,-198
33.932000000000016,-1284,-8029,-442,-187,3,0,56,-256,-190
33.94399999999996,-1332,-8037,-476,-194,-10,4,53,-263,-191
33.96600000000001,-1344,-8005,-442,-190,-18,2,53,-273,-196
33.98799999999994,-1320,-8005,-418,-196,2,3,52,-267,-197
34.0,-1322,-7999,-378,-197,38,1,54,-254,-197
34.021999999999935,-1320,-8033,-422,-187,41,2,61,-261,-197
34.03399999999999,-1312,-8007,-410,-181,17,-10,47,-264,-197
