Tiempo,AccX,AccY,AccZ,GyrX,GyrY,GyrZ,MagX,MagY,MagZ
0.0,610,-454,8530,-22,43,-5,-156,-178,-264
0.011999999999943611,638,-450,8440,-2,-15,-4,-167,-182,-270
0.03399999999987813,542,-472,8374,1,-43,-11,-164,-182,-262
0.04599999999982174,526,-466,8364,-14,8,-7,-178,-180,-268
0.06799999999998363,538,-476,8330,-12,-4,-6,-167,-179,-262
0.08999999999991815,550,-454,8276,-4,-14,-7,-164,-174,-265
0.10199999999986176,580,-426,8356,-22,23,-12,-170,-175,-268
0.12399999999979627,564,-480,8386,-7,-7,-9,-169,-174,-267
0.13599999999996726,520,-418,8366,-11,3,-5,-170,-183,-256
0.15799999999990177,566,-444,8354,-16,10,-11,-165,-180,-264
0.16999999999984539,510,-452,8362,-1,-18,-11,-155,-182,-251
0.19200000000000728,572,-444,8318,-10,2,-3,-164,-179,-262
0.2039999999999509,544,-448,8330,-11,-2,-13,-180,-180,-256
0.2259999999998854,526,-460,8336,-11,-9,-12,-169,-184,-265
0.24799999999981992,514,-418,8348,-13,16,-10,-174,-187,-265
0.2599999999999909,524,-462,8394,-9,-4,-7,-170,-183,-273
0.2819999999999254,508,-464,8356,-9,-5,-6,-181,-182,-265
0.29399999999986903,558,-474,8334,-12,16,-8,-170,-188,-261
0.31599999999980355,536,-454,8354,-5,-11,-9,-168,-180,-256
0.32799999999997453,558,-478,8312,-10,1,-8,-168,-183,-266
0.34999999999990905,514,-502,8334,-18,9,-6,-174,-174,-262
0.37199999999984357,532,-462,8318,-6,-14,-8,-159,-184,-260
0.3839999999997872,540,-486,8342,-16,2,-7,-171,-182,-260
0.40599999999994907,542,-494,8380,-12,10,-6,-167,-179,-255
0.4179999999998927,546,-440,8334,-6,-4,-7,-165,-186,-254
0.4399999999998272,542,-430,8356,-14,7,-8,-167,-179,-260
0.4519999999999982,546,-474,8380,-9,0,-6,-167,-182,-265
0.4739999999999327,570,-424,8352,-13,-8,-8,-171,-189,-253
0.48628499999995256,558,-434,8336,-14,5,-10,-169,-184,-260
0.5079999999998108,588,-440,8366,-6,-7,-5,-167,-184,-270
0.5299999999999727,552,-494,8342,-11,1,-8,-169,-179,-260
0.5419999999999163,548,-486,8350,-10,7,-10,-165,-180,-266
0.5639999999998508,532,-438,8376,-10,-10,-10,-170,-180,-264
0.5759999999997945,524,-412,8310,-14,4,-14,-174,-182,-258
0.5979999999999563,532,-412,8334,-8,2,-9,-171,-177,-258
0.6099999999999,546,-472,8346,-8,-1,-7,-171,-189,-262
0.6319999999998345,554,-446,8324,-15,9,-7,-164,-184,-258
0.6539999999999964,494,-454,8342,-10,-2,-8,-168,-183,-266
0.66599999999994,532,-462,8370,-7,-3,-7,-178,-173,-264
0.6829979999999978,546,-478,8324,-12,6,-3,-162,-179,-262
0.7049999999999272,542,-442,8372,-10,-5,-6,-168,-178,-264
0.7169999999998709,554,-466,8358,-11,3,-7,-165,-186,-261
0.7389999999998054,506,-480,8368,-12,-4,-6,-165,-188,-259
0.7509999999999764,532,-412,8388,-11,-3,-9,-176,-177,-270
0.7729999999999109,532,-478,8320,-12,1,-12,-170,-175,-259
0.7949999999998454,586,-408,8284,-6,-1,-12,-167,-182,-262
0.806999999999789,546,-424,8294,-10,0,-12,-165,-183,-268
0.8289999999999509,558,-410,8348,-14,5,-7,-163,-186,-266
0.8409999999998945,536,-420,8322,-13,-2,-8,-167,-187,-258
0.862999999999829,590,-486,8366,-8,-1,-7,-169,-189,-262
0.875,566,-432,8374,-10,2,-9,-176,-177,-272
0.8969999999999345,562,-460,8366,-10,1,-12,-163,-183,-264
0.918999999999869,546,-440,8360,-8,-2,-11,-173,-178,-256
0.9309999999998126,506,-498,8322,-11,1,-3,-164,-184,-267
0.9529999999999745,526,-420,8332,-16,3,-7,-176,-184,-265
0.9649999999999181,568,-466,8384,-11,-5,-10,-168,-186,-264
0.9869999999998527,536,-436,8354,-14,3,-6,-170,-173,-259
0.9989999999997963,548,-470,8356,-14,0,-7,-165,-180,-256
1.0209999999999582,554,-462,8380,-12,-3,-10,-157,-179,-262
1.033284999999978,582,-472,8382,-13,-1,-9,-158,-183,-259
1.0549999999998363,512,-484,8384,-12,3,-11,-169,-184,-260
1.0769999999999982,564,-444,8360,-11,-6,-7,-161,-183,-261
1.0889999999999418,556,-502,8342,-11,-4,-8,-173,-183,-266
1.1109999999998763,544,-474,8390,-6,0,-11,-171,-177,-262
1.12299999999982,546,-464,8346,-9,-4,-11,-165,-180,-261
1.1449999999999818,576,-440,8322,-12,-3,-11,-164,-177,-260
1.1569999999999254,576,-440,8360,-13,-3,-6,-169,-192,-262
1.17899999999986,544,-420,8376,-13,-2,-10,-159,-179,-262
1.2009999999997945,560,-446,8396,-9,-7,-6,-171,-174,-262
1.2129999999999654,552,-468,8342,-16,4,-7,-173,-180,-266
1.2349999999999,584,-420,8318,-8,2,-12,-173,-183,-266
1.2469999999998436,588,-496,8314,-14,-7,-7,-163,-186,-254
1.2690000000000055,532,-442,8370,-12,-1,-6,-168,-180,-259
1.280999999999949,548,-472,8352,-15,0,-4,-162,-179,-255
1.3029999999998836,528,-456,8364,-10,-5,-7,-162,-174,-267
1.324999999999818,534,-476,8354,-11,1,-9,-158,-186,-268
1.336999999999989,578,-470,8316,-9,-3,-8,-164,-177,-267
1.3589999999999236,578,-470,8334,-14,0,-6,-156,-188,-264
1.3709999999998672,568,-446,8332,-16,3,-7,-170,-178,-264
1.3929999999998017,552,-444,8332,-5,-3,-6,-174,-172,-262
1.4049999999999727,566,-452,8362,-12,0,-8,-169,-174,-265
1.4269999999999072,534,-478,8344,-14,3,-11,-167,-179,-262
1.4389999999998508,516,-456,8360,-10,-2,-8,-175,-186,-261
1.4609999999997854,550,-480,8330,-14,2,-7,-178,-183,-271
1.4829999999999472,548,-426,8406,-10,0,-12,-168,-180,-268
1.4949999999998909,506,-450,8324,-10,0,-8,-165,-175,-273
1.5169999999998254,552,-512,8362,-14,0,-7,-175,-178,-259
1.5289999999999964,550,-474,8372,-16,0,-9,-165,-170,-256
1.5509999999999309,550,-462,8332,-16,3,-10,-170,-175,-266
1.5629999999998745,566,-456,8332,-8,-4,-8,-168,-188,-266
1.584999999999809,608,-440,8346,-11,-3,-5,-169,-182,-265
1.606999999999971,568,-452,8358,-12,-2,-6,-173,-183,-264
1.6189999999999145,578,-466,8370,-8,-7,-8,-169,-182,-260
1.640999999999849,522,-524,8334,-13,3,-10,-168,-178,-249
1.6529999999997926,582,-466,8350,-7,0,-6,-169,-184,-255
1.6749999999999545,548,-480,8372,-9,2,-5,-165,-175,-256
1.6869999999998981,554,-426,8354,-11,-4,-8,-165,-173,-268
1.7089999999998327,546,-466,8302,-11,-1,-7,-165,-180,-276
1.7309999999999945,546,-462,8376,-10,1,-8,-165,-178,-273
1.7429999999999382,548,-488,8332,-8,1,-4,-168,-186,-264
1.7649999999998727,560,-466,8318,-14,1,-6,-171,-182,-255
1.7769999999998163,550,-448,8352,-11,0,-5,-167,-184,-258
1.7989999999999782,584,-466,8352,-9,-1,-10,-171,-177,-255
1.8109999999999218,512,-474,8316,-15,-1,-9,-173,-188,-264
1.8329999999998563,566,-452,8328,-14,-3,-11,-169,-174,-265
1.8449999999998,538,-494,8316,-10,-6,-7,-173,-183,-261
1.8669999999999618,560,-472,8376,-11,3,-11,-162,-177,-255
1.8889999999998963,530,-442,8356,-12,-1,-9,-167,-189,-274
1.90099999999984,556,-468,8356,-10,-3,-8,-170,-175,-261
1.9230000000000018,578,-452,8350,-14,-2,-3,-163,-186,-256
1.9349999999999454,558,-438,8328,-12,0,-7,-175,-180,-268
1.95699999999988,588,-436,8398,-10,3,-7,-170,-178,-261
1.9689999999998236,526,-458,8372,-14,4,-13,-167,-184,-265
1.9909999999999854,556,-378,8316,-11,0,-5,-167,-184,-265
2.01299999999992,540,-472,8324,-15,4,-8,-168,-188,-264
2.0249999999998636,542,-472,8420,-13,-3,-3,-165,-180,-256
2.046999999999798,506,-448,8322,-10,-8,-6,-164,-182,-260
2.058999999999969,598,-454,8328,-15,4,-10,-176,-174,-262
2.0809999999999036,552,-432,8360,-14,1,-7,-171,-184,-258
2.092999999999847,550,-452,8382,-8,-3,-6,-169,-187,-260
2.115000000000009,526,-474,8290,-14,2,-5,-169,-177,-260
2.1369999999999436,556,-494,8368,-8,-4,-5,-173,-193,-264
2.1489999999998872,524,-462,8348,-14,-2,-11,-163,-191,-264
2.1709999999998217,560,-480,8300,-9,-1,-8,-175,-186,-266
2.1829999999999927,554,-470,8388,-10,-7,-4,-165,-188,-261
2.2049999999999272,558,-436,8374,-14,5,-9,-159,-189,-270
2.216999999999871,542,-434,8344,-12,-4,-6,-164,-184,-267
2.2389999999998054,590,-442,8392,-13,-5,-6,-168,-180,-256
2.2509999999999764,550,-492,8356,-11,-1,-9,-164,-192,-262
2.272999999999911,540,-446,8348,-14,1,-6,-173,-183,-259
2.2949999999998454,558,-468,8330,-9,-5,-7,-171,-177,-270
2.306999999999789,504,-478,8356,-10,-5,-6,-169,-172,-274
2.328999999999951,558,-418,8344,-10,2,-2,-178,-168,-266
2.3409999999998945,542,-466,8312,-10,2,-12,-158,-183,-259
2.362999999999829,552,-482,8352,-14,1,-9,-153,-175,-254
2.375,536,-476,8340,-14,3,-4,-162,-189,-272
2.3969999999999345,518,-424,8328,-10,-3,-8,-161,-178,-261
2.418999999999869,550,-486,8334,-14,-3,-8,-158,-191,-266
2.4309999999998126,544,-472,8344,-15,0,-8,-174,-167,-265
2.4529999999999745,562,-442,8348,-11,-2,-5,-169,-182,-260
2.464999999999918,550,-466,8368,-12,-1,-5,-168,-178,-259
2.4869999999998527,566,-454,8382,-10,5,-6,-167,-174,-262
2.4989999999997963,548,-498,8340,-11,-2,-12,-173,-186,-261
2.520999999999958,550,-444,8354,-12,0,-8,-168,-186,-259
2.5329999999999018,556,-426,8350,-10,-1,-6,-159,-184,-258
2.5549999999998363,542,-478,8308,-12,-5,-6,-173,-178,-256
2.576999999999998,530,-424,8314,-10,4,-3,-169,-182,-260
2.588999999999942,580,-464,8366,-7,1,-8,-158,-183,-264
2.6109999999998763,556,-480,8332,-8,-3,-6,-174,-179,-262
2.62299999999982,562,-470,8326,-15,0,-11,-168,-186,-256
2.644999999999982,546,-488,8346,-11,-3,-4,-170,-175,-261
2.6569999999999254,550,-474,8342,-11,-2,-8,-163,-178,-271
2.683997999999974,538,-484,8396,-11,-1,-9,-168,-186,-266
2.6959999999999127,590,-432,8324,-11,-3,-6,-162,-174,-265
2.717999999999847,522,-414,8332,-9,-4,-8,-169,-187,-260
2.729999999999791,550,-450,8384,-14,0,-7,-159,-182,-270
2.7519999999999527,542,-502,8374,-11,0,-10,-171,-179,-258
2.7639999999998963,554,-436,8358,-11,3,-7,-174,-184,-267
2.785999999999831,514,-444,8366,-11,-3,-7,-168,-183,-271
2.798000000000002,538,-470,8302,-8,-3,-4,-174,-187,-265
2.8199999999999363,536,-470,8330,-14,1,-8,-173,-183,-266
2.841999999999871,528,-436,8322,-9,1,-15,-164,-187,-267
2.8539999999998145,602,-462,8344,-11,-4,-9,-170,-183,-261
2.8759999999999764,502,-452,8316,-14,4,-8,-171,-174,-260
2.88799999999992,514,-452,8336,-7,-1,-8,-170,-183,-259
2.9099999999998545,588,-428,8342,-3,2,-10,-175,-186,-261
2.921999999999798,556,-460,8316,-12,0,-6,-161,-188,-264
2.94399999999996,546,-454,8318,-12,1,-6,-168,-180,-264
2.9659999999998945,574,-440,8330,-11,-3,-11,-163,-186,-254
2.977999999999838,512,-424,8336,-12,-1,-11,-164,-172,-262
3.0,540,-442,8308,-11,2,-7,-165,-186,-266
3.0119999999999436,590,-490,8390,-13,-5,-7,-161,-183,-259
3.033999999999878,550,-454,8342,-15,-2,-6,-171,-172,-258
3.0459999999998217,514,-466,8310,-12,-4,-11,-171,-182,-251
3.0679999999999836,570,-458,8320,-10,-3,-8,-165,-186,-264
3.0799999999999272,518,-438,8352,-11,-3,-6,-165,-186,-259
3.1019999999998618,460,-492,8342,-5,-4,-6,-167,-184,-270
3.1239999999997963,590,-472,8358,-14,2,-11,-169,-184,-258
3.1359999999999673,510,-462,8366,-11,1,-15,-169,-179,-270
3.1579999999999018,574,-426,8280,-10,-4,-5,-170,-178,-261
3.1699999999998454,486,-450,8358,-8,2,-7,-171,-184,-272
3.1920000000000073,572,-446,8352,-8,-6,-3,-171,-192,-265
3.203999999999951,562,-454,8348,-11,-2,-12,-171,-184,-262
3.2259999999998854,514,-468,8316,-10,-4,-7,-167,-179,-258
3.24799999999982,562,-476,8320,-12,-3,-6,-170,-183,-266
3.259999999999991,516,-454,8336,-11,0,-5,-173,-186,-266
3.2819999999999254,568,-476,8374,-11,-2,-9,-169,-174,-258
3.293999999999869,522,-430,8382,-17,5,-10,-165,-180,-266
3.3159999999998035,552,-470,8374,-12,2,-12,-169,-177,-265
3.3279999999999745,546,-476,8324,-12,3,-7,-174,-184,-258
3.349999999999909,576,-518,8334,-13,6,-6,-164,-179,-265
3.3719999999998436,530,-496,8324,-11,-3,-6,-167,-184,-260
3.383999999999787,564,-454,8348,-11,1,-8,-171,-177,-258
3.405999999999949,524,-466,8362,-16,1,-5,-163,-186,-266
3.4179999999998927,538,-434,8342,-10,-8,-10,-167,-187,-267
3.439999999999827,544,-456,8328,-11,4,-4,-165,-175,-261
3.451999999999998,548,-454,8320,-13,-3,-7,-169,-177,-255
3.4739999999999327,578,-458,8372,-13,-4,-6,-163,-175,-264
3.4859999999998763,538,-446,8354,-14,2,-8,-165,-183,-266
3.507999999999811,524,-438,8368,-14,-2,-6,-173,-188,-268
3.5299999999999727,544,-498,8318,-10,-3,-4,-169,-184,-265
3.5419999999999163,588,-442,8316,-9,5,-3,-173,-183,-264
3.563999999999851,562,-442,8364,-9,-4,-9,-165,-186,-264
3.5759999999997945,574,-466,8416,-15,-9,-6,-170,-180,-264
3.5979999999999563,576,-442,8342,-14,7,-10,-164,-172,-258
3.6099999999999,558,-426,8350,-10,-1,-5,-178,-186,-266
3.6319999999998345,542,-440,8286,-10,-4,-5,-170,-175,-261
3.6539999999999964,588,-480,8376,-11,-1,-6,-171,-179,-258
3.66599999999994,552,-446,8346,-10,4,-10,-168,-180,-264
3.6879999999998745,584,-460,8338,-14,0,-8,-162,-184,-260
3.699999999999818,566,-468,8280,-8,0,-6,-163,-183,-266
3.72199999999998,572,-450,8324,-14,-2,-8,-165,-183,-268
3.7339999999999236,512,-442,8360,-13,0,-7,-171,-187,-255
3.755999999999858,558,-452,8340,-14,-3,-10,-163,-183,-266
3.7779999999997926,554,-470,8354,-13,2,-7,-173,-183,-249
3.7899999999999636,546,-486,8336,-16,-2,-7,-164,-192,-260
3.811999999999898,542,-476,8346,-7,2,-7,-176,-182,-267
3.8239999999998417,534,-486,8312,-7,5,-7,-159,-179,-255
3.8460000000000036,532,-418,8388,-11,-5,-7,-168,-180,-271
3.8579999999999472,570,-496,8346,-11,8,-9,-173,-183,-266
3.8799999999998818,560,-472,8318,-9,-3,-4,-173,-178,-259
3.8919999999998254,560,-456,8272,-10,-2,-10,-170,-180,-264
3.9139999999999873,562,-440,8388,-12,-4,-10,-170,-180,-261
3.935999999999922,530,-492,8330,-9,-3,-10,-163,-175,-259
3.9479999999998654,522,-444,8378,-11,-4,-6,-167,-182,-265
3.9699999999998,548,-434,8354,-9,2,-4,-161,-180,-264
3.981999999999971,518,-462,8338,-14,-7,-4,-169,-182,-262
4.003999999999905,564,-458,8332,-10,-6,-8,-164,-187,-258
4.015999999999849,502,-506,8352,-12,4,-8,-167,-184,-255
4.0379999999997835,536,-452,8364,-3,-10,-10,-175,-191,-256
4.059999999999945,532,-434,8356,-11,3,-5,-164,-177,-265
4.071999999999889,542,-490,8378,-9,3,-10,-170,-178,-264
4.093999999999824,526,-420,8332,-6,-4,-7,-174,-179,-265
4.1059999999999945,534,-442,8398,-14,3,-10,-161,-188,-249
4.127999999999929,576,-458,8354,-8,0,-7,-174,-187,-265
4.139999999999873,532,-418,8374,-11,1,-7,-169,-184,-260
4.161999999999807,542,-428,8314,-12,-2,-5,-169,-179,-262
4.173999999999978,574,-444,8348,-13,-2,-9,-171,-187,-260
4.195999999999913,510,-474,8344,-12,1,-15,-159,-187,-260
4.217999999999847,552,-434,8354,-11,-5,-6,-168,-188,-254
4.229999999999791,598,-426,8352,-12,-2,-10,-167,-182,-260
4.251999999999953,538,-466,8326,-10,-2,-5,-163,-178,-261
4.263999999999896,494,-466,8296,-10,-3,-11,-163,-180,-271
4.285999999999831,530,-450,8416,-9,3,-12,-163,-175,-268
4.298000000000002,562,-462,8344,-11,-4,-6,-170,-188,-271
4.319999999999936,580,-444,8326,-9,-1,-7,-173,-183,-261
4.341999999999871,548,-426,8310,-14,2,-10,-163,-186,-259
4.3539999999998145,618,-438,8388,-11,0,-5,-162,-182,-265
4.375999999999976,538,-480,8364,-10,-3,-8,-168,-180,-264
4.38799999999992,512,-458,8360,-10,2,-7,-168,-193,-254
4.4099999999998545,532,-474,8348,-13,0,-3,-168,-180,-261
4.421999999999798,552,-478,8322,-15,-2,-14,-158,-186,-256
4.44399999999996,524,-488,8360,-11,4,-7,-168,-183,-256
4.4659999999998945,554,-480,8352,-7,1,-10,-167,-169,-262
4.477999999999838,512,-456,8336,-10,-6,-11,-169,-177,-265
4.5,536,-456,8366,-10,7,-6,-169,-169,-262
4.511999999999944,526,-480,8340,-12,-5,-7,-167,-182,-267
4.533999999999878,596,-448,8362,-8,-3,-8,-165,-183,-256
4.545999999999822,556,-476,8360,-7,1,-9,-169,-179,-265
4.567999999999984,514,-492,8410,-13,-2,-7,-162,-177,-272
4.579999999999927,564,-476,8298,-14,5,-7,-174,-182,-258
4.601999999999862,566,-442,8346,-9,-2,-7,-170,-188,-261
4.623999999999796,578,-462,8344,-10,-7,-6,-169,-182,-258
4.635999999999967,522,-416,8368,-17,2,-4,-156,-183,-266
4.657999999999902,538,-470,8312,-9,-4,-6,-164,-184,-274
4.669999999999845,542,-446,8386,-12,-5,-5,-167,-169,-265
4.686997999999903,470,-390,8340,-12,2,-4,-163,-175,-273
4.708999999999833,534,-458,8360,-13,-2,-9,-163,-178,-266
4.721000000000004,582,-438,8356,-10,-3,-8,-171,-172,-262
4.742999999999938,520,-478,8348,-13,7,-5,-167,-179,-260
4.764999999999873,552,-478,8410,-11,-3,-10,-178,-186,-264
4.776999999999816,542,-472,8348,-3,0,-7,-167,-187,-267
4.798999999999978,566,-484,8364,-13,-1,-6,-169,-184,-260
4.810999999999922,528,-476,8342,-12,-7,-8,-170,-180,-261
4.832999999999856,564,-448,8352,-9,5,-12,-168,-183,-268
4.8449999999998,538,-444,8342,-11,2,-8,-165,-180,-261
4.866999999999962,490,-454,8368,-9,-7,-6,-173,-188,-271
4.888999999999896,554,-500,8344,-12,-1,-8,-170,-178,-276
4.90099999999984,564,-456,8364,-10,3,-7,-169,-189,-262
4.923000000000002,540,-468,8354,-11,-6,-9,-176,-179,-258
4.934999999999945,570,-462,8320,-9,4,-9,-165,-178,-266
4.95699999999988,498,-436,8316,-11,-1,-8,-165,-183,-261
4.968999999999824,526,-424,8340,-8,-2,-11,-168,-188,-256
4.9909999999999854,540,-442,8334,-8,-4,-5,-169,-184,-267
5.01299999999992,564,-452,8318,-13,-1,-10,-175,-175,-264
5.024999999999864,554,-482,8354,-11,3,-3,-165,-178,-261
5.046999999999798,542,-430,8326,-9,-1,-7,-165,-175,-268
5.058999999999969,534,-426,8356,-11,1,-10,-167,-179,-253
5.080999999999904,540,-478,8312,-12,0,-8,-174,-174,-258
5.092999999999847,542,-430,8386,-11,3,-8,-173,-186,-268
5.115000000000009,582,-430,8338,-10,-3,-13,-171,-179,-262
5.126999999999953,568,-440,8374,-13,3,-10,-168,-186,-261
5.148999999999887,562,-432,8362,-15,-1,-5,-173,-188,-259
5.170999999999822,528,-476,8360,-15,-6,-5,-165,-183,-259
5.182999999999993,576,-434,8360,-12,-1,-8,-168,-180,-264
5.204999999999927,542,-452,8362,-11,-1,-1,-171,-179,-267
5.216999999999871,562,-418,8342,-17,1,-9,-165,-188,-264
5.238999999999805,562,-506,8342,-3,1,-8,-170,-183,-259
5.250999999999976,576,-474,8348,-10,-1,-8,-167,-184,-265
5.272999999999911,586,-428,8342,-12,-1,-9,-168,-186,-268
5.294999999999845,544,-420,8322,-10,0,-11,-171,-184,-258
5.306999999999789,564,-430,8318,-10,0,-7,-170,-168,-261
5.328999999999951,552,-448,8370,-10,1,-8,-176,-187,-272
5.3409999999998945,584,-450,8316,-13,-6,-6,-169,-187,-265
5.362999999999829,564,-394,8342,-13,-1,-8,-164,-172,-265
5.375,554,-454,8348,-10,0,-3,-170,-188,-261
5.3969999999999345,544,-458,8360,-10,-3,-8,-170,-178,-266
5.418999999999869,518,-454,8390,-9,2,-8,-164,-187,-270
5.430999999999813,548,-452,8350,-6,-6,-10,-168,-178,-266
5.4529999999999745,590,-484,8308,-16,5,-9,-178,-178,-271
5.464999999999918,556,-452,8340,-11,6,-4,-173,-188,-266
5.486999999999853,534,-502,8328,-11,-6,-10,-175,-186,-266
5.498999999999796,514,-436,8334,-12,-3,-8,-165,-186,-266
5.520999999999958,598,-448,8342,-15,2,-5,-169,-187,-267
5.532999999999902,526,-414,8340,-15,-3,-11,-163,-180,-261
5.554999999999836,544,-490,8372,-11,1,-6,-169,-184,-262
5.576999999999998,496,-462,8358,-11,-2,-9,-167,-179,-270
5.588999999999942,546,-422,8324,-13,1,-7,-159,-184,-265
5.610999999999876,518,-444,8328,-10,0,-8,-178,-183,-266
5.62299999999982,508,-452,8364,-11,0,-8,-164,-182,-267
5.644999999999982,534,-480,8298,-12,-2,-8,-170,-180,-271
5.656999999999925,568,-446,8318,-11,0,-9,-164,-177,-267
5.67899999999986,594,-490,8352,-11,-9,-9,-168,-180,-264
5.7009999999997945,566,-440,8360,-13,1,-8,-167,-184,-265
5.712999999999965,548,-456,8376,-9,-3,-11,-168,-183,-259
5.7349999999999,548,-452,8354,-11,0,-8,-165,-178,-259
5.746999999999844,590,-450,8386,-11,3,-10,-170,-175,-266
5.7690000000000055,528,-462,8352,-8,-3,-12,-163,-183,-266
5.780999999999949,590,-450,8318,-11,-3,-8,-164,-179,-265
5.802999999999884,572,-472,8348,-11,-3,-8,-176,-182,-265
5.8152849999999034,578,-430,8370,-12,-1,-9,-162,-189,-267
5.836999999999989,566,-486,8344,-14,1,-8,-173,-180,-256
5.858999999999924,554,-470,8374,-6,-1,-9,-170,-175,-261
5.870999999999867,536,-476,8340,-7,1,-8,-163,-186,-266
5.892999999999802,592,-444,8360,-10,-2,-7,-163,-180,-271
5.904999999999973,548,-480,8352,-10,-1,-6,-156,-183,-261
5.926999999999907,584,-466,8346,-10,2,-8,-173,-175,-266
5.938999999999851,574,-436,8338,-11,-2,-3,-169,-182,-274
5.960999999999785,544,-428,8366,-10,-2,-8,-171,-182,-265
5.982999999999947,538,-454,8378,-9,-1,-7,-173,-180,-271
5.994999999999891,552,-510,8340,-11,0,-9,-164,-177,-267
6.016999999999825,532,-440,8316,-8,-2,-10,-173,-178,-266
6.028999999999996,560,-462,8370,-9,-4,-10,-171,-179,-274
6.050999999999931,536,-478,8348,-12,-1,-4,-167,-182,-265
6.0629999999998745,542,-480,8360,-13,4,-6,-167,-189,-258
6.084999999999809,536,-478,8368,-10,-2,-10,-174,-182,-260
6.106999999999971,560,-486,8326,-12,-1,-9,-165,-178,-261
6.1189999999999145,524,-400,8330,-9,1,-7,-180,-183,-264
6.140999999999849,550,-474,8328,-12,3,-4,-175,-175,-264
6.152999999999793,580,-442,8382,-13,-3,-4,-165,-183,-261
6.1749999999999545,554,-476,8348,-11,4,-11,-173,-183,-264
6.186999999999898,578,-422,8340,-12,-9,-5,-175,-160,-266
6.208999999999833,528,-432,8322,-15,2,-4,-171,-189,-251
6.221000000000004,544,-438,8384,-10,-3,-5,-165,-180,-266
6.242999999999938,558,-474,8330,-11,-5,-8,-167,-187,-262
6.264999999999873,548,-434,8388,-18,0,-8,-173,-178,-261
6.276999999999816,552,-508,8350,-8,-5,-8,-170,-183,-266
6.298999999999978,540,-464,8340,-12,1,-7,-165,-183,-264
6.310999999999922,580,-430,8360,-9,-4,-9,-165,-180,-261
6.332999999999856,580,-468,8340,-12,-6,-8,-170,-170,-271
6.3449999999998,520,-466,8384,-10,7,-8,-170,-183,-254
6.366999999999962,586,-464,8308,-12,-10,-10,-169,-184,-265
6.388999999999896,574,-472,8350,-13,1,-7,-170,-183,-266
6.40099999999984,546,-486,8338,-12,0,-1,-159,-184,-260
6.423000000000002,578,-472,8390,-11,-2,-9,-173,-170,-264
6.434999999999945,522,-442,8324,-13,3,-6,-168,-180,-268
6.45699999999988,528,-438,8342,-10,0,-10,-163,-180,-268
6.468999999999824,554,-480,8366,-8,-3,-6,-174,-189,-262
6.4909999999999854,560,-430,8326,-15,0,-8,-165,-180,-264
6.51299999999992,512,-438,8382,-9,-2,-6,-168,-175,-259
6.524999999999864,548,-432,8378,-11,-2,-7,-165,-188,-252
6.546999999999798,562,-468,8358,-14,4,-8,-165,-175,-261
6.558999999999969,546,-450,8370,-11,-5,-6,-168,-188,-259
6.580999999999904,562,-470,8324,-15,5,-7,-159,-194,-272
6.592999999999847,560,-484,8334,-13,-3,-7,-170,-183,-266
6.615000000000009,528,-456,8340,-7,-7,-9,-170,-180,-264
6.626999999999953,568,-440,8310,-13,1,-8,-169,-197,-260
6.648999999999887,574,-456,8370,-15,1,-3,-174,-172,-262
6.670999999999822,582,-486,8316,-11,-3,-3,-167,-189,-260
6.6879979999998795,554,-478,8370,-11,-2,-10,-164,-184,-255
6.699999999999818,548,-472,8304,-11,-5,-8,-171,-187,-262
6.72199999999998,580,-472,8298,-11,-5,-6,-170,-175,-252
6.733999999999924,524,-506,8342,-10,-1,-10,-176,-189,-262
6.755999999999858,534,-464,8360,-8,-4,-7,-167,-172,-260
6.767999999999802,576,-452,8308,-12,-3,-9,-167,-182,-251
6.789999999999964,576,-458,8358,-9,3,-8,-165,-180,-266
6.811999999999898,554,-418,8350,-10,-3,-8,-167,-182,-265
6.823999999999842,540,-432,8354,-10,3,-5,-173,-183,-261
6.846000000000004,558,-426,8378,-12,0,-7,-163,-175,-264
6.857999999999947,564,-466,8342,-8,-3,-8,-170,-173,-264
6.879999999999882,530,-476,8332,-12,4,-11,-173,-188,-261
6.891999999999825,552,-428,8354,-8,-6,-10,-165,-186,-256
6.913999999999987,518,-406,8338,-6,2,-6,-167,-182,-262
6.935999999999922,538,-442,8328,-7,-3,-6,-163,-178,-259
6.947999999999865,546,-442,8354,-13,0,-11,-179,-179,-260
6.9699999999998,568,-464,8308,-10,1,-4,-170,-170,-264
6.981999999999971,554,-446,8374,-13,0,-7,-163,-191,-264
7.003999999999905,532,-482,8384,-11,2,-5,-168,-178,-264
7.015999999999849,560,-470,8290,-9,2,-2,-169,-197,-262
7.0379999999997835,556,-464,8342,-8,2,-12,-170,-188,-266
7.059999999999945,552,-488,8344,-15,-4,-6,-175,-183,-256
7.071999999999889,502,-434,8342,-13,3,-8,-168,-175,-261
7.093999999999824,586,-432,8332,-7,4,-7,-176,-172,-265
7.1059999999999945,554,-438,8354,-10,-3,-6,-162,-182,-265
7.127999999999929,544,-470,8310,-11,5,-9,-170,-175,-261
7.139999999999873,542,-454,8340,-13,-1,-9,-165,-186,-256
7.161999999999807,576,-438,8318,-8,-10,-2,-162,-182,-267
7.173999999999978,564,-438,8350,-11,1,-10,-164,-177,-265
7.195999999999913,528,-450,8362,-15,3,-10,-170,-191,-256
7.217999999999847,528,-468,8322,-7,-5,-9,-174,-174,-265
7.229999999999791,536,-472,8342,-6,3,-5,-175,-191,-264
7.251999999999953,576,-480,8348,-9,0,-7,-170,-170,-256
7.263999999999896,560,-474,8348,-13,-1,-8,-157,-187,-253
7.285999999999831,500,-458,8358,-10,4,-6,-170,-183,-254
7.298000000000002,556,-474,8378,-8,-1,-11,-169,-172,-270
7.319999999999936,528,-458,8356,-11,0,-10,-169,-179,-270
7.341999999999871,538,-456,8374,-13,2,-7,-169,-184,-260
7.3539999999998145,554,-472,8348,-15,-2,-6,-165,-180,-261
7.375999999999976,550,-410,8376,-8,2,-8,-168,-183,-264
7.38799999999992,566,-432,8388,-7,-2,-9,-170,-175,-266
7.4099999999998545,574,-468,8356,-10,-1,-4,-164,-174,-262
7.421999999999798,582,-432,8310,-12,5,-7,-173,-178,-264
7.44399999999996,494,-466,8334,-13,-6,-8,-170,-186,-264
7.4659999999998945,576,-472,8352,-12,3,-3,-169,-179,-262
7.477999999999838,560,-456,8354,-13,0,-10,-174,-174,-260
7.5,534,-448,8324,-12,-4,-7,-167,-192,-265
7.511999999999944,586,-472,8376,-11,1,-2,-165,-186,-264
7.533999999999878,504,-478,8348,-10,-1,-12,-161,-173,-261
7.545999999999822,582,-444,8316,-4,1,-12,-161,-173,-254
7.567999999999984,556,-454,8358,-10,2,-9,-171,-192,-251
7.579999999999927,562,-434,8354,-11,-3,-7,-167,-187,-258
7.601999999999862,566,-448,8352,-16,2,-10,-165,-178,-271
7.623999999999796,546,-444,8338,-10,-1,-10,-175,-175,-264
7.635999999999967,532,-484,8320,-8,1,-7,-159,-182,-260
7.657999999999902,566,-478,8366,-10,-1,-8,-174,-182,-265
7.669999999999845,498,-438,8316,-13,3,-7,-169,-177,-262
7.692000000000007,576,-456,8314,-11,-5,-8,-169,-179,-272
7.703999999999951,534,-486,8326,-12,3,-10,-165,-191,-268
7.725999999999885,560,-438,8358,-17,0,-5,-176,-189,-267
7.74799999999982,504,-512,8366,-11,-1,-9,-169,-189,-258
7.759999999999991,574,-462,8342,-15,2,-11,-165,-175,-266
7.781999999999925,534,-460,8338,-8,-5,-6,-175,-183,-268
7.793999999999869,530,-444,8360,-11,1,-7,-175,-188,-273
7.8159999999998035,548,-468,8376,-9,3,-8,-167,-179,-265
7.8279999999999745,552,-452,8374,-11,-6,-8,-164,-189,-270
7.849999999999909,544,-498,8338,-13,7,-9,-176,-192,-251
7.861999999999853,536,-446,8356,-7,-3,-6,-165,-183,-261
7.883999999999787,588,-434,8330,-14,-3,-7,-168,-183,-266
7.905999999999949,544,-466,8348,-13,1,-9,-164,-184,-258
7.917999999999893,510,-508,8272,-14,-1,-4,-175,-183,-266
7.939999999999827,540,-486,8350,-10,-4,-11,-165,-180,-264
7.951999999999998,554,-470,8366,-14,5,-5,-169,-182,-270
7.973999999999933,544,-412,8352,-13,2,-8,-165,-180,-266
7.985999999999876,548,-462,8364,-12,0,-9,-169,-189,-258
8.00799999999981,546,-442,8336,-12,6,-9,-164,-184,-270
8.029999999999973,536,-462,8352,-13,-6,-5,-167,-187,-270
8.041999999999916,522,-472,8330,-5,0,-9,-163,-173,-268
8.06399999999985,608,-416,8356,-5,-3,-8,-162,-189,-267
8.075999999999794,536,-484,8330,-9,0,-9,-168,-183,-261
8.097999999999956,538,-472,8368,-12,-1,-9,-171,-184,-267
8.1099999999999,514,-456,8342,-11,3,-6,-171,-182,-265
8.131999999999834,618,-476,8354,-10,2,-5,-174,-189,-262
8.153999999999996,602,-432,8360,-14,-3,-7,-165,-175,-256
8.16599999999994,576,-452,8324,-14,1,-6,-175,-175,-254
8.187999999999874,512,-444,8346,-14,-3,-5,-169,-182,-260
8.199999999999818,568,-450,8364,-13,0,-10,-169,-164,-262
8.22199999999998,570,-408,8354,-13,-2,-6,-169,-184,-260
8.233999999999924,540,-472,8340,-10,0,-7,-168,-180,-268
8.255999999999858,522,-444,8370,-11,0,-7,-163,-193,-254
8.267999999999802,550,-436,8350,-11,1,-12,-171,-187,-272
8.289999999999964,556,-432,8324,-8,-5,-7,-165,-175,-264
8.311999999999898,600,-460,8356,-12,1,-3,-165,-191,-261
8.323999999999842,548,-458,8366,-9,2,-3,-168,-186,-256
8.346000000000004,544,-466,8324,-11,-1,-6,-159,-177,-262
8.357999999999947,574,-468,8362,-10,2,-11,-173,-180,-259
8.379999999999882,606,-458,8332,-10,-4,-8,-159,-174,-260
8.391999999999825,540,-438,8308,-7,-7,-11,-163,-180,-266
8.413999999999987,546,-468,8354,-11,-4,-9,-168,-173,-261
8.435999999999922,584,-430,8334,-12,-3,-7,-175,-178,-261
8.447999999999865,592,-438,8346,-9,5,-6,-168,-186,-264
8.4699999999998,524,-426,8322,-10,-4,-8,-169,-192,-260
8.481999999999971,544,-438,8302,-11,-3,-9,-164,-182,-265
8.503999999999905,550,-436,8320,-13,2,-6,-162,-194,-265
8.515999999999849,554,-426,8360,-8,-2,-6,-163,-183,-256
8.537999999999784,520,-442,8374,-11,5,-3,-171,-179,-258
8.559999999999945,570,-454,8354,-8,2,-7,-161,-186,-254
8.571999999999889,574,-420,8360,-6,-5,-8,-171,-189,-270
8.593999999999824,520,-444,8394,-14,4,-2,-181,-194,-260
8.605999999999995,536,-408,8360,-14,-1,-10,-165,-175,-256
8.627999999999929,556,-494,8314,-14,-4,-11,-164,-179,-265
8.639999999999873,568,-442,8362,-15,2,-11,-162,-182,-265
8.661999999999807,546,-404,8358,-10,-2,-7,-171,-179,-255
8.673999999999978,532,-410,8354,-10,-2,-5,-161,-178,-256
8.700999999999794,556,-454,8342,-7,-1,-14,-169,-187,-265
8.712999999999965,544,-426,8374,-10,-2,-7,-174,-172,-262
8.7349999999999,600,-460,8334,-11,4,-8,-174,-184,-255
8.746999999999844,540,-450,8318,-11,0,-6,-165,-183,-261
8.769000000000005,588,-480,8378,-12,-6,-6,-175,-183,-266
8.780999999999949,552,-472,8344,-9,-1,-11,-171,-177,-260
8.802999999999884,518,-428,8386,-13,0,-9,-169,-182,-262
8.814999999999827,528,-400,8334,-13,-5,-7,-169,-184,-260
8.836999999999989,588,-490,8404,-11,5,-10,-175,-178,-266
8.858999999999924,480,-428,8380,-14,1,-6,-169,-184,-265
8.870999999999867,536,-490,8348,-10,-4,-5,-170,-183,-261
8.892999999999802,508,-454,8340,-13,5,-8,-170,-193,-259
8.904999999999973,532,-442,8340,-10,-4,-8,-175,-186,-256
8.926999999999907,552,-520,8346,-14,0,-4,-167,-187,-260
8.93899999999985,522,-452,8412,-12,-1,-6,-170,-173,-254
8.960999999999785,546,-476,8326,-15,2,-9,-164,-187,-267
8.982999999999947,546,-484,8352,-9,0,-4,-158,-180,-266
8.99499999999989,544,-450,8330,-12,-8,-6,-168,-186,-264
9.016999999999825,574,-462,8348,-11,7,-10,-167,-177,-258
9.028999999999996,542,-464,8338,-11,-7,-12,-173,-175,-259
9.05099999999993,556,-444,8376,-12,-3,-8,-165,-188,-266
9.062999999999874,562,-442,8342,-11,0,-9,-169,-189,-260
9.084999999999809,552,-452,8366,-8,-7,-10,-163,-188,-261
9.106999999999971,566,-446,8362,-11,2,-8,-174,-184,-267
9.118999999999915,546,-458,8348,-17,2,-8,-161,-178,-268
9.140999999999849,542,-482,8370,-9,0,-5,-180,-186,-268
9.152999999999793,550,-486,8372,-14,-1,-8,-173,-178,-261
9.174999999999955,512,-406,8358,-6,4,-11,-165,-180,-266
9.186999999999898,558,-432,8304,-7,-2,-11,-180,-183,-261
9.208999999999833,556,-400,8354,-12,0,-11,-158,-186,-266
9.221000000000004,540,-426,8362,-10,0,-5,-167,-177,-260
9.242999999999938,532,-430,8350,-13,-2,-4,-168,-188,-261
9.264999999999873,544,-456,8328,-10,0,-8,-174,-172,-262
9.276999999999816,554,-456,8374,-8,-2,-6,-171,-184,-262
9.298999999999978,542,-458,8338,-9,2,-10,-165,-168,-266
9.310999999999922,572,-452,8320,-13,1,-2,-165,-180,-268
9.332999999999856,538,-486,8278,-11,-4,-8,-164,-169,-255
9.3449999999998,524,-418,8334,-9,0,-6,-168,-180,-264
9.366999999999962,520,-494,8416,-13,-1,-6,-175,-186,-256
9.388999999999896,582,-460,8344,-12,-1,-9,-163,-183,-261
9.40099999999984,530,-448,8314,-12,-6,-5,-167,-182,-265
9.423000000000002,522,-464,8386,-11,1,-9,-176,-182,-262
9.434999999999945,524,-466,8354,-7,-2,-8,-161,-183,-264
9.45699999999988,548,-444,8350,-12,-4,-8,-165,-180,-268
9.468999999999824,540,-492,8346,-14,-2,-11,-171,-187,-262
9.490999999999985,570,-472,8308,-8,0,-6,-164,-192,-265
9.502999999999929,564,-432,8374,-13,-1,-5,-168,-183,-261
9.524999999999864,558,-440,8328,-10,0,-10,-169,-184,-265
9.546999999999798,564,-476,8352,-10,-6,-4,-165,-178,-259
9.558999999999969,554,-452,8354,-7,-2,-6,-171,-177,-260
9.580999999999904,520,-474,8370,-7,4,-7,-167,-187,-258
9.592999999999847,568,-436,8344,-8,-11,-8,-165,-186,-259
9.615000000000009,520,-480,8342,-10,1,-9,-167,-177,-260
9.626999999999953,530,-494,8336,-7,-2,-8,-174,-182,-270
9.648999999999887,528,-484,8316,-15,3,-11,-157,-172,-265
9.670999999999822,528,-456,8356,-14,-2,-10,-168,-191,-264
9.682999999999993,544,-438,8294,-9,1,-8,-169,-189,-258
9.704999999999927,554,-498,8298,-8,2,-4,-170,-175,-254
9.71699999999987,544,-472,8362,-8,2,-7,-165,-180,-264
9.738999999999805,554,-452,8338,-11,2,-8,-171,-187,-270
9.750999999999976,532,-450,8364,-10,-4,-8,-173,-180,-266
9.77299999999991,554,-464,8308,-12,2,-3,-158,-188,-268
9.794999999999845,556,-470,8398,-13,-1,-9,-176,-187,-262
9.806999999999789,568,-460,8346,-10,1,-5,-170,-178,-261
9.82899999999995,516,-456,8350,-10,-2,-14,-168,-175,-271
9.840999999999894,612,-410,8350,-17,-6,-10,-169,-177,-260
9.862999999999829,514,-446,8394,-18,-2,-7,-167,-182,-258
9.875,588,-462,8354,-13,1,-8,-170,-183,-266
9.896999999999935,572,-454,8328,-13,5,-2,-169,-177,-262
9.908999999999878,586,-446,8364,-13,-3,-9,-168,-186,-256
9.930999999999813,540,-434,8334,-10,1,-10,-170,-173,-259
9.952999999999975,538,-446,8360,-12,-1,-11,-165,-186,-256
9.964999999999918,526,-434,8288,-12,-3,-8,-162,-179,-262
9.986999999999853,582,-466,8382,-13,-2,-5,-168,-180,-264
9.998999999999796,570,-456,8314,-14,-4,-7,-164,-179,-255
10.020999999999958,518,-454,8378,-12,-4,-7,-164,-177,-255
10.032999999999902,608,-436,8346,-11,-4,-3,-171,-187,-260
10.054999999999836,542,-458,8370,-14,0,-10,-175,-180,-264
10.076999999999998,522,-456,8330,-13,-1,-5,-169,-184,-265
10.088999999999942,566,-470,8328,-11,-2,-9,-179,-179,-262
10.110999999999876,558,-466,8372,-12,4,-5,-169,-187,-260
10.12299999999982,534,-430,8390,-10,2,-7,-169,-184,-262
10.144999999999982,574,-468,8304,-13,-1,-10,-168,-180,-254
10.156999999999925,556,-376,8374,-15,-2,-8,-164,-179,-258
10.17899999999986,588,-450,8322,-11,-1,-7,-175,-186,-268
10.200999999999794,536,-442,8350,-12,1,-10,-175,-188,-266
10.212999999999965,556,-482,8340,-14,-7,-10,-164,-184,-255
10.2349999999999,572,-422,8352,-12,-1,-12,-167,-174,-270
10.246999999999844,524,-436,8342,-8,2,-6,-174,-189,-253
10.269000000000005,534,-464,8344,-14,-2,-9,-165,-188,-259
10.280999999999949,552,-444,8364,-14,0,-5,-163,-193,-259
10.302999999999884,558,-480,8330,-15,5,-7,-170,-188,-259
10.314999999999827,498,-436,8306,-11,-2,-7,-167,-179,-255
10.336999999999989,526,-474,8342,-16,3,-5,-169,-179,-255
10.358999999999924,526,-450,8388,-9,2,-13,-169,-184,-262
10.370999999999867,534,-446,8306,-13,-2,-9,-162,-179,-255
10.392999999999802,618,-470,8336,-11,4,-10,-164,-177,-265
10.404999999999973,554,-432,8376,-16,-5,-7,-162,-184,-267
10.426999999999907,562,-444,8368,-13,0,-8,-179,-182,-260
10.43899999999985,554,-430,8340,-9,-2,-11,-165,-183,-259
10.460999999999785,504,-520,8356,-8,-2,-5,-163,-175,-264
10.482999999999947,522,-454,8320,-8,2,-8,-165,-178,-266
10.49499999999989,554,-496,8356,-14,6,-8,-162,-177,-265
10.516999999999825,542,-450,8318,-11,0,-5,-165,-180,-259
10.528999999999996,540,-492,8358,-11,1,-7,-169,-184,-258
10.55099999999993,574,-482,8358,-13,-2,-3,-165,-178,-264
10.562999999999874,528,-476,8354,-8,0,-7,-169,-192,-265
10.584999999999809,552,-438,8368,-12,-1,-9,-165,-180,-252
10.597284999999829,556,-488,8324,-12,3,-10,-171,-179,-267
10.61999999999989,530,-462,8354,-8,4,-9,-161,-186,-268
10.641999999999825,524,-446,8318,-11,-5,-6,-163,-178,-259
10.653999999999996,532,-474,8322,-11,2,-10,-165,-173,-261
10.67599999999993,560,-448,8332,-12,-1,-7,-173,-186,-259
10.692997999999989,566,-436,8368,-10,3,-6,-165,-180,-259
10.704999999999927,576,-452,8370,-14,0,-6,-169,-182,-260
10.726999999999862,584,-484,8314,-11,-2,-4,-170,-178,-261
10.738999999999805,538,-430,8318,-12,-1,-9,-153,-168,-266
10.760999999999967,528,-462,8330,-13,-3,-9,-167,-189,-251
10.782999999999902,542,-418,8362,-15,0,-12,-169,-189,-267
10.794999999999845,548,-470,8338,-12,2,-8,-171,-194,-270
10.817000000000007,550,-468,8376,-11,-6,-5,-173,-188,-256
10.82899999999995,558,-454,8358,-9,2,-5,-173,-170,-268
10.850999999999885,572,-416,8358,-13,0,-8,-164,-192,-258
10.862999999999829,572,-462,8328,-15,2,-6,-167,-184,-265
10.884999999999991,562,-450,8364,-11,0,-4,-175,-170,-266
10.896999999999935,602,-468,8314,-9,-7,-9,-174,-172,-265
10.918999999999869,550,-440,8350,-14,2,-8,-164,-182,-267
10.940999999999804,532,-498,8332,-9,4,-8,-167,-184,-255
10.952999999999975,510,-480,8350,-12,-7,-9,-174,-184,-270
10.974999999999909,500,-460,8336,-11,-2,-6,-165,-180,-261
10.986999999999853,558,-480,8368,-15,1,-10,-165,-180,-254
11.008999999999787,514,-406,8308,-9,1,-6,-158,-180,-259
11.020999999999958,596,-442,8354,-6,-1,-10,-168,-178,-264
11.042999999999893,562,-454,8358,-11,3,-9,-178,-183,-264
11.064999999999827,522,-432,8374,-12,-6,-5,-161,-186,-266
11.076999999999998,560,-492,8342,-12,0,-7,-163,-193,-271
11.098999999999933,548,-480,8364,-10,-6,-7,-174,-182,-253
11.110999999999876,554,-508,8362,-7,0,-6,-165,-183,-271
11.13299999999981,582,-430,8368,-17,-3,-10,-165,-180,-259
11.144999999999982,526,-464,8346,-12,-5,-11,-170,-193,-268
11.166999999999916,574,-454,8318,-10,-1,-8,-169,-189,-267
11.18899999999985,514,-482,8336,-16,2,-6,-169,-182,-258
11.200999999999794,498,-440,8332,-8,-5,-6,-168,-178,-261
11.222999999999956,544,-442,8320,-13,-1,-6,-175,-178,-261
11.2349999999999,566,-400,8348,-11,1,-10,-176,-182,-258
11.256999999999834,518,-460,8328,-11,6,-7,-169,-187,-265
11.269000000000005,566,-440,8306,-7,-6,-2,-171,-192,-270
11.29099999999994,562,-430,8332,-12,-5,-8,-159,-177,-265
11.302999999999884,586,-494,8344,-10,-1,-5,-174,-177,-260
11.324999999999818,558,-450,8344,-10,-1,-10,-167,-182,-262
11.34699999999998,534,-434,8374,-9,4,-12,-164,-179,-262
11.358999999999924,554,-472,8358,-10,-2,-5,-167,-174,-255
11.380999999999858,546,-454,8330,-12,-2,-10,-168,-186,-261
11.392999999999802,542,-448,8364,-10,-2,-8,-161,-180,-271
11.414999999999964,562,-458,8340,-13,5,-10,-163,-186,-259
11.426999999999907,562,-472,8334,-10,1,-12,-165,-183,-261
11.448999999999842,538,-460,8342,-9,-2,-8,-165,-188,-266
11.471000000000004,572,-476,8318,-11,0,-10,-165,-170,-266
11.482999999999947,552,-434,8332,-10,-3,-8,-171,-172,-270
11.504999999999882,564,-472,8368,-11,2,-9,-173,-175,-256
11.516999999999825,536,-476,8324,-12,-1,-5,-162,-184,-255
11.538999999999987,566,-414,8330,-11,0,-7,-167,-192,-262
11.55099999999993,604,-440,8398,-13,0,-7,-170,-188,-266
11.572999999999865,528,-438,8372,-8,2,-9,-171,-184,-262
11.5949999999998,546,-444,8336,-9,-1,-9,-165,-180,-264
11.606999999999971,548,-500,8368,-11,1,-11,-178,-180,-266
11.628999999999905,562,-408,8298,-11,-5,-6,-161,-175,-259
11.640999999999849,560,-448,8348,-10,-1,-10,-165,-180,-264
11.662999999999784,550,-430,8330,-11,3,-9,-161,-180,-261
11.674999999999955,558,-412,8334,-8,-2,-3,-171,-187,-265
11.696999999999889,604,-454,8374,-15,-1,-6,-178,-188,-266
11.708999999999833,536,-444,8386,-7,0,-6,-165,-183,-259
11.730999999999995,552,-452,8328,-14,-5,-8,-168,-186,-261
11.752999999999929,552,-412,8342,-10,-6,-9,-168,-183,-261
11.764999999999873,530,-448,8358,-11,3,-6,-165,-180,-266
11.786999999999807,566,-490,8342,-11,2,-7,-168,-180,-256
11.798999999999978,578,-476,8286,-10,-5,-3,-170,-175,-266
11.820999999999913,550,-506,8322,-12,-3,-9,-162,-174,-267
11.832999999999856,518,-406,8362,-10,2,-6,-156,-183,-271
11.85499999999979,540,-482,8350,-16,-8,-6,-167,-189,-262
11.876999999999953,568,-482,8352,-12,7,-11,-180,-183,-254
11.888999999999896,558,-434,8318,-6,-6,-7,-170,-191,-271
11.91099999999983,554,-456,8376,-12,-5,-5,-169,-182,-267
11.923000000000002,550,-476,8320,-13,-5,-8,-175,-188,-249
11.944999999999936,540,-498,8332,-10,-3,-5,-164,-189,-260
11.95699999999988,528,-422,8354,-12,3,-11,-163,-180,-271
11.978999999999814,562,-446,8328,-14,-3,-3,-169,-182,-262
11.991284999999834,578,-454,8342,-10,0,-9,-176,-182,-267
12.01299999999992,574,-450,8344,-17,7,-7,-158,-175,-266
12.034999999999854,568,-460,8392,-12,0,-3,-168,-178,-264
12.046999999999798,544,-448,8330,-7,4,-13,-163,-183,-252
12.06899999999996,544,-470,8350,-12,6,-12,-164,-182,-262
12.080999999999904,586,-480,8360,-9,-2,-7,-171,-187,-262
12.102999999999838,550,-412,8346,-9,3,-7,-170,-173,-261
12.115000000000009,564,-452,8378,-12,-2,-13,-156,-175,-271
12.136999999999944,528,-476,8330,-6,-5,-10,-163,-180,-259
12.158999999999878,540,-474,8318,-13,1,-4,-169,-184,-265
12.170999999999822,584,-454,8354,-10,-5,-9,-165,-173,-268
12.192999999999984,538,-446,8318,-11,-3,-6,-175,-186,-266
12.204999999999927,586,-438,8338,-11,2,-7,-168,-183,-268
12.226999999999862,482,-438,8376,-9,-2,-11,-168,-183,-256
12.238999999999805,540,-454,8366,-11,1,-6,-168,-173,-256
12.260999999999967,582,-460,8336,-9,3,-7,-171,-184,-258
12.282999999999902,566,-448,8304,-11,0,-5,-174,-179,-258
12.294999999999845,554,-382,8368,-15,0,-2,-169,-189,-272
12.317000000000007,530,-470,8360,-13,-3,-6,-173,-188,-271
12.32899999999995,542,-432,8354,-10,-3,-7,-164,-184,-258
12.350999999999885,566,-466,8390,-13,-3,-6,-171,-172,-267
12.362999999999829,540,-432,8354,-15,2,-6,-174,-169,-258
12.384999999999991,540,-436,8354,-12,-7,-11,-162,-182,-267
12.396999999999935,538,-484,8364,-11,6,-5,-167,-182,-265
12.418999999999869,540,-448,8332,-10,0,-10,-176,-174,-255
12.440999999999804,570,-470,8352,-9,1,-12,-175,-183,-264
12.452999999999975,542,-462,8362,-8,-3,-5,-161,-183,-264
12.474999999999909,554,-464,8354,-8,3,-9,-168,-183,-252
12.486999999999853,566,-418,8356,-13,-3,-7,-157,-184,-270
12.508999999999787,574,-422,8364,-10,-5,-7,-165,-186,-264
12.520999999999958,536,-488,8324,-10,-4,-7,-165,-178,-266
12.542999999999893,554,-486,8354,-14,1,-9,-171,-174,-260
12.564999999999827,562,-420,8320,-10,-1,-6,-158,-186,-254
12.576999999999998,516,-454,8334,-10,-4,-8,-173,-188,-264
12.598999999999933,552,-458,8324,-10,0,-10,-171,-187,-265
12.610999999999876,506,-456,8352,-10,-2,-5,-162,-179,-267
12.63299999999981,548,-472,8358,-6,-2,-11,-168,-180,-256
12.644999999999982,550,-426,8344,-8,-3,-9,-169,-179,-255
12.666999999999916,590,-484,8364,-8,-6,-10,-161,-178,-268
12.693997999999965,546,-480,8366,-12,4,-6,-173,-175,-273
12.705999999999904,542,-428,8344,-13,-2,-10,-170,-180,-264
12.717999999999847,534,-518,8352,-10,-2,-12,-168,-183,-264
12.740000000000009,582,-468,8344,-12,-2,-7,-173,-178,-259
12.751999999999953,566,-470,8358,-11,-1,-8,-164,-179,-255
12.773999999999887,510,-440,8302,-14,-2,-7,-162,-177,-262
12.78599999999983,576,-394,8376,-14,-4,-11,-171,-184,-265
12.807999999999993,546,-498,8328,-13,-2,-12,-163,-180,-259
12.829999999999927,542,-438,8398,-11,1,-9,-165,-186,-259
12.84199999999987,554,-494,8364,-9,-1,-7,-174,-184,-262
12.863999999999805,516,-440,8310,-9,-9,-9,-169,-177,-260
12.875999999999976,564,-488,8386,-16,0,-7,-167,-187,-265
12.89799999999991,534,-432,8348,-12,4,0,-174,-182,-270
12.909999999999854,560,-452,8310,-7,-4,-11,-173,-188,-259
12.931999999999789,526,-432,8366,-13,5,-4,-159,-189,-267
12.94399999999996,604,-480,8332,-9,-5,-5,-174,-182,-260
12.965999999999894,622,-432,8364,-10,-1,-7,-173,-193,-268
12.987999999999829,544,-438,8334,-11,7,-8,-176,-187,-262
13.0,526,-424,8328,-6,-6,-5,-167,-174,-253
13.021999999999935,552,-440,8366,-8,0,-7,-179,-182,-262
13.033999999999878,534,-440,8348,-10,4,-9,-156,-183,-261
13.055999999999813,532,-514,8358,-6,-3,-8,-169,-177,-253
13.067999999999984,570,-488,8344,-12,6,-4,-171,-177,-262
13.089999999999918,544,-460,8356,-12,1,-9,-180,-188,-266
13.111999999999853,532,-434,8300,-10,4,-8,-174,-187,-258
13.123999999999796,600,-446,8382,-9,1,-7,-171,-179,-265
13.145999999999958,528,-474,8350,-13,0,-8,-167,-202,-262
13.157999999999902,536,-394,8314,-9,3,-9,-162,-182,-270
13.179999999999836,606,-442,8356,-16,5,-8,-173,-186,-264
13.192000000000007,552,-446,8362,-8,-2,-9,-169,-189,-255
13.213999999999942,580,-388,8326,-9,-2,-5,-174,-179,-262
13.235999999999876,544,-450,8342,-14,-9,-10,-167,-172,-265
13.24799999999982,552,-468,8344,-13,4,-9,-171,-179,-258
13.269999999999982,540,-482,8340,-13,-3,-8,-169,-172,-265
13.281999999999925,556,-496,8342,-9,-3,-9,-171,-174,-260
13.30399999999986,568,-452,8350,-12,4,-6,-174,-182,-262
13.315999999999804,580,-440,8332,-9,1,-8,-162,-187,-262
13.337999999999965,618,-456,8332,-8,-3,-7,-173,-178,-256
13.349999999999909,540,-464,8356,-9,-1,-9,-169,-179,-262
13.371999999999844,546,-450,8370,-8,-2,-11,-182,-180,-254
13.394000000000005,472,-480,8358,-16,-9,-10,-168,-186,-271
13.405999999999949,598,-436,8376,-11,2,-5,-169,-182,-265
13.427999999999884,558,-470,8308,-7,1,-5,-165,-188,-266
13.439999999999827,596,-444,8354,-9,-4,-14,-171,-177,-255
13.461999999999989,566,-488,8308,-15,0,-6,-169,-177,-265
13.473999999999933,522,-424,8356,-10,0,-8,-167,-179,-260
13.495999999999867,538,-490,8332,-10,-4,-7,-168,-191,-252
13.517999999999802,566,-514,8370,-11,4,-9,-174,-182,-260
13.529999999999973,564,-456,8330,-12,3,-8,-169,-177,-262
13.551999999999907,550,-450,8358,-12,-3,-10,-175,-178,-276
13.56399999999985,592,-464,8352,-12,0,-10,-168,-175,-249
13.585999999999785,524,-448,8342,-9,0,-8,-169,-179,-265
13.597999999999956,558,-432,8346,-14,-5,-4,-170,-175,-264
13.61999999999989,546,-428,8320,-8,-4,-12,-161,-175,-266
13.641999999999825,556,-446,8356,-10,0,-9,-168,-180,-266
13.653999999999996,606,-410,8362,-12,0,-6,-163,-183,-264
13.67599999999993,602,-444,8396,-8,2,-8,-159,-179,-258
13.687999999999874,524,-418,8350,-13,1,-10,-173,-183,-266
13.709999999999809,558,-458,8324,-11,2,-2,-169,-189,-265
13.72199999999998,542,-442,8372,-10,0,-11,-169,-187,-265
13.743999999999915,574,-408,8338,-9,-2,-4,-165,-170,-259
13.755999999999858,526,-462,8324,-10,2,-9,-170,-183,-261
13.777999999999793,562,-416,8350,-10,0,-11,-170,-191,-264
13.799999999999955,540,-462,8342,-10,0,-10,-162,-177,-272
13.811999999999898,560,-482,8340,-8,0,-9,-171,-192,-265
13.833999999999833,506,-480,8348,-13,2,-7,-157,-184,-270
13.846000000000004,548,-430,8368,-11,0,-11,-161,-183,-266
13.867999999999938,580,-426,8324,-15,2,-6,-175,-180,-268
13.879999999999882,528,-464,8366,-9,3,-8,-171,-179,-270
13.901999999999816,570,-472,8362,-8,-1,-5,-169,-172,-270
13.923999999999978,604,-454,8302,-11,1,-5,-174,-189,-262
13.935999999999922,526,-506,8332,-10,-2,-11,-169,-182,-262
13.957999999999856,570,-450,8338,-8,-3,-7,-169,-192,-262
13.9699999999998,518,-432,8322,-11,3,-3,-165,-183,-256
13.991999999999962,564,-468,8370,-10,-3,-5,-171,-189,-255
14.003999999999905,548,-470,8334,-14,2,-7,-164,-189,-265
14.02599999999984,522,-416,8320,-14,2,-7,-174,-184,-260
14.037999999999784,528,-456,8402,-6,1,-5,-161,-183,-266
14.059999999999945,534,-404,8322,-11,-2,-6,-167,-179,-260
14.08199999999988,602,-462,8334,-11,1,-6,-167,-182,-265
14.093999999999824,584,-428,8354,-14,2,-8,-171,-179,-260
14.115999999999985,546,-432,8296,-12,-5,-7,-163,-180,-261
14.127999999999929,526,-492,8352,-13,2,-7,-174,-184,-260
14.149999999999864,508,-460,8392,-11,1,-7,-173,-183,-261
14.161999999999807,580,-474,8364,-16,-1,-7,-170,-191,-266
14.183999999999969,554,-446,8302,-11,0,-7,-167,-174,-265
14.205999999999904,546,-430,8364,-12,1,-8,-175,-183,-259
14.217999999999847,572,-420,8294,-10,2,-6,-170,-183,-264
14.240000000000009,538,-448,8356,-14,0,-8,-167,-179,-270
14.251999999999953,560,-456,8368,-13,1,-8,-170,-180,-264
14.273999999999887,522,-480,8336,-13,-5,-8,-168,-183,-264
14.28599999999983,552,-422,8318,-10,-1,-9,-170,-188,-261
14.307999999999993,534,-456,8338,-13,-2,-7,-174,-179,-265
14.329999999999927,516,-460,8342,-6,-6,-5,-167,-187,-262
14.34199999999987,562,-484,8342,-9,2,-7,-178,-186,-261
14.363999999999805,564,-480,8360,-10,-1,-9,-170,-186,-261
14.375999999999976,538,-504,8340,-12,-2,-10,-164,-179,-265
14.39799999999991,582,-416,8330,-12,0,-4,-164,-177,-258
14.409999999999854,540,-424,8360,-9,5,-7,-175,-183,-268
14.431999999999789,508,-432,8370,-13,3,-3,-159,-184,-258
14.44399999999996,552,-454,8356,-14,2,-7,-176,-184,-260
14.465999999999894,616,-500,8332,-13,-2,-12,-174,-177,-262
14.487999999999829,580,-398,8342,-13,2,-9,-171,-172,-265
14.5,562,-460,8364,-7,2,-11,-169,-179,-260
14.521999999999935,574,-444,8354,-11,-7,-9,-173,-178,-266
14.533999999999878,518,-460,8354,-10,2,-11,-167,-179,-265
14.555999999999813,500,-476,8370,-11,-2,-7,-161,-183,-273
14.567999999999984,560,-466,8330,-11,-2,-7,-170,-183,-273
14.589999999999918,524,-480,8350,-12,0,-7,-170,-180,-266
14.611999999999853,544,-468,8330,-9,2,-13,-174,-184,-272
14.623999999999796,546,-450,8350,-5,-1,-8,-165,-178,-271
14.645999999999958,570,-444,8354,-11,-1,-10,-173,-170,-268
14.657999999999902,538,-428,8368,-10,2,-8,-170,-186,-266
14.679999999999836,566,-424,8328,-15,-5,-10,-159,-174,-265
14.696997999999894,606,-432,8364,-10,-4,-6,-168,-183,-273
14.708999999999833,516,-436,8308,-10,3,-7,-174,-179,-274
14.730999999999995,564,-468,8378,-9,-1,-6,-167,-177,-255
14.752999999999929,552,-448,8384,-9,0,-7,-169,-182,-270
14.764999999999873,518,-462,8372,-11,-3,-6,-162,-192,-262
14.786999999999807,588,-436,8332,-10,0,-8,-178,-183,-256
14.798999999999978,592,-470,8332,-13,-1,-5,-170,-180,-261
14.820999999999913,550,-450,8304,-14,7,-7,-168,-168,-264
14.832999999999856,552,-402,8364,-11,1,-8,-174,-182,-260
14.85499999999979,540,-468,8372,-15,-4,-7,-168,-178,-256
14.876999999999953,556,-418,8334,-11,4,-8,-179,-174,-270
14.888999999999896,528,-436,8368,-10,2,-8,-169,-179,-262
14.91099999999983,532,-484,8336,-14,3,-7,-169,-184,-255
14.923000000000002,556,-464,8358,-10,3,-7,-164,-182,-262
14.944999999999936,534,-458,8358,-13,2,-10,-164,-189,-260
14.95699999999988,524,-470,8342,-13,-6,-7,-165,-178,-249
14.978999999999814,534,-462,8306,-11,2,0,-163,-183,-266
14.990999999999985,536,-448,8330,-15,-1,-7,-175,-178,-264
15.01299999999992,548,-468,8360,-10,-4,-8,-167,-182,-267
15.034999999999854,574,-486,8310,-10,-4,-4,-182,-180,-264
15.046999999999798,546,-456,8340,-11,1,0,-178,-180,-256
15.06899999999996,560,-450,8362,-5,-3,-10,-168,-178,-278
15.080999999999904,540,-482,8366,-16,0,-7,-163,-175,-276
15.102999999999838,526,-432,8304,-10,-1,-6,-170,-175,-266
15.115000000000009,524,-494,8330,-8,0,-6,-171,-182,-262
15.136999999999944,574,-458,8326,-14,4,-7,-170,-183,-266
15.158999999999878,524,-442,8380,-11,3,-11,-168,-178,-259
15.170999999999822,578,-456,8378,-13,-3,-9,-173,-180,-259
15.192999999999984,556,-442,8360,-15,4,-7,-163,-186,-273
15.204999999999927,486,-420,8322,-12,1,-8,-168,-188,-254
15.226999999999862,572,-460,8370,-13,-2,-7,-169,-184,-267
15.238999999999805,540,-502,8342,-10,-1,-7,-175,-180,-271
15.260999999999967,558,-430,8308,-9,0,-10,-163,-178,-259
15.282999999999902,540,-450,8362,-12,-2,-8,-165,-180,-256
15.294999999999845,554,-436,8332,-9,-5,-8,-169,-184,-260
15.317000000000007,608,-472,8356,-16,-3,-6,-164,-177,-255
15.32899999999995,524,-504,8354,-11,3,-5,-170,-180,-268
15.350999999999885,534,-462,8340,-13,2,-10,-168,-175,-261
15.362999999999829,588,-466,8304,-11,-1,-9,-156,-188,-264
15.384999999999991,558,-444,8358,-11,5,-6,-164,-179,-253
15.396999999999935,548,-442,8428,-9,1,-5,-164,-179,-258
15.418999999999869,534,-468,8360,-7,-6,-10,-171,-182,-260
15.440999999999804,562,-470,8364,-11,-1,-8,-165,-180,-264
15.452999999999975,520,-484,8344,-9,-1,-5,-164,-189,-255
15.474999999999909,598,-482,8346,-8,-2,-6,-167,-182,-260
15.486999999999853,580,-496,8298,-6,-1,-6,-169,-177,-265
15.508999999999787,564,-448,8342,-8,5,-9,-168,-188,-261
15.520999999999958,566,-462,8366,-15,-1,-3,-173,-191,-259
15.542999999999893,576,-476,8356,-13,1,-8,-170,-180,-266
15.564999999999827,554,-452,8388,-13,0,-12,-167,-182,-265
15.576999999999998,578,-478,8304,-11,2,-8,-164,-184,-262
15.598999999999933,518,-458,8344,-11,-1,-9,-175,-180,-256
15.610999999999876,534,-448,8368,-10,4,-11,-168,-180,-268
15.63299999999981,564,-430,8336,-12,-4,-4,-165,-183,-266
15.644999999999982,584,-482,8348,-13,-1,-8,-165,-180,-264
15.666999999999916,504,-420,8352,-9,1,-13,-158,-175,-254
15.67899999999986,566,-456,8366,-10,-2,-6,-174,-174,-258
15.700999999999794,588,-470,8362,-12,6,-6,-161,-183,-268
15.722999999999956,572,-428,8378,-9,-8,-8,-169,-184,-265
15.7349999999999,518,-444,8326,-12,-3,-10,-167,-192,-260
15.756999999999834,500,-446,8338,-12,0,-7,-165,-188,-261
15.769000000000005,560,-440,8380,-8,-4,-9,-167,-182,-265
15.79099999999994,540,-466,8402,-8,-5,-7,-174,-182,-253
15.802999999999884,572,-472,8320,-11,7,-8,-181,-184,-255
15.824999999999818,568,-474,8346,-11,-5,-9,-171,-184,-260
15.84699999999998,554,-452,8352,-8,7,-5,-167,-177,-277
15.858999999999924,546,-450,8362,-14,1,-5,-173,-186,-266
15.880999999999858,582,-452,8310,-14,1,-6,-164,-177,-260
15.892999999999802,520,-482,8290,-12,-1,-8,-167,-177,-260
15.914999999999964,544,-442,8326,-10,1,-10,-165,-186,-264
15.926999999999907,598,-428,8388,-11,-2,-10,-173,-196,-268
15.948999999999842,532,-456,8344,-13,3,-8,-158,-188,-254
15.971000000000004,548,-496,8346,-13,5,-6,-168,-180,-266
15.982999999999947,548,-450,8338,-12,-1,-6,-170,-191,-261
16.00499999999988,560,-454,8328,-13,2,-7,-173,-178,-268
16.016999999999825,598,-456,8376,-11,3,-5,-159,-177,-260
16.038999999999987,568,-418,8304,-10,-4,-6,-169,-179,-262
16.05099999999993,568,-450,8340,-13,2,-3,-170,-193,-264
16.072999999999865,550,-462,8364,-12,3,-8,-173,-188,-261
16.08499999999981,522,-432,8324,-11,-4,-8,-171,-187,-262
16.10699999999997,554,-480,8318,-10,4,-9,-168,-191,-268
16.128999999999905,520,-432,8314,-9,1,-7,-169,-179,-260
16.14099999999985,496,-494,8300,-10,-5,-7,-174,-187,-258
16.162999999999784,532,-450,8330,-11,6,-7,-167,-174,-265
16.174999999999955,560,-442,8312,-13,-2,-9,-169,-182,-258
16.19699999999989,524,-432,8332,-12,0,-10,-170,-188,-268
16.208999999999833,578,-474,8314,-14,-1,-9,-175,-178,-268
16.230999999999995,536,-456,8354,-10,-4,-11,-164,-179,-255
16.25299999999993,578,-474,8358,-11,0,-8,-178,-186,-256
16.264999999999873,572,-464,8344,-13,1,-8,-181,-174,-260
16.286999999999807,536,-462,8324,-10,-5,-5,-167,-187,-251
16.298999999999978,576,-394,8350,-14,4,-5,-169,-184,-265
16.320999999999913,574,-468,8338,-10,-3,-11,-165,-180,-261
16.332999999999856,490,-468,8350,-8,-7,-7,-165,-170,-256
16.35499999999979,572,-434,8322,-15,4,-4,-165,-183,-259
16.376999999999953,554,-460,8358,-10,-8,-5,-165,-183,-261
16.388999999999896,552,-430,8294,-14,-4,-13,-162,-174,-255
16.41099999999983,560,-472,8340,-9,3,-8,-173,-180,-256
16.423000000000002,566,-428,8356,-7,-4,-8,-170,-183,-266
16.444999999999936,528,-496,8360,-8,-1,-8,-165,-175,-254
16.45699999999988,584,-446,8372,-15,2,-7,-170,-175,-261
16.478999999999814,578,-494,8348,-11,-3,-8,-164,-187,-262
16.490999999999985,560,-450,8344,-12,-6,-8,-174,-184,-260
16.51299999999992,596,-484,8340,-14,2,-7,-169,-177,-258
16.534999999999854,544,-492,8344,-7,-4,-10,-167,-182,-253
16.546999999999798,500,-446,8306,-14,1,-10,-170,-178,-261
16.56899999999996,506,-512,8348,-13,-1,-9,-159,-174,-260
16.580999999999904,552,-504,8364,-11,-7,-9,-165,-188,-261
16.602999999999838,506,-416,8342,-10,1,-7,-170,-191,-259
16.61500000000001,568,-434,8324,-10,-1,-8,-165,-173,-266
16.636999999999944,536,-426,8346,-8,1,-8,-165,-188,-254
16.658999999999878,604,-466,8350,-12,-1,-7,-165,-183,-256
16.67099999999982,554,-434,8374,-9,-3,-8,-164,-179,-262
16.69799799999987,520,-488,8392,-15,0,-6,-167,-179,-267
16.70999999999981,568,-484,8362,-12,-2,-6,-174,-182,-272
16.72199999999998,560,-460,8352,-10,1,-10,-165,-186,-268
16.743999999999915,510,-458,8334,-14,0,-7,-165,-180,-256
16.755999999999858,572,-436,8316,-8,1,-6,-158,-186,-256
16.777999999999793,586,-504,8346,-11,0,-7,-168,-180,-268
16.799999999999955,564,-480,8336,-12,-10,-10,-168,-186,-268
16.811999999999898,570,-452,8310,-11,-1,-5,-173,-186,-264
16.833999999999833,524,-474,8324,-7,-1,-4,-165,-178,-266
16.846000000000004,554,-464,8348,-12,-1,-6,-163,-183,-266
16.867999999999938,536,-458,8346,-9,-3,-8,-171,-184,-258
16.87999999999988,580,-422,8338,-14,3,-9,-165,-175,-264
16.901999999999816,548,-468,8330,-15,3,-5,-162,-182,-258
16.923999999999978,560,-416,8356,-11,-4,-2,-164,-179,-262
16.935999999999922,524,-442,8340,-10,2,-8,-168,-180,-261
16.957999999999856,540,-514,8300,-9,-3,-7,-171,-182,-258
16.9699999999998,574,-508,8368,-11,-4,-9,-169,-179,-260
16.991999999999962,530,-448,8384,-15,6,-8,-161,-180,-261
17.003999999999905,572,-428,8302,-14,-6,-10,-167,-184,-255
17.02599999999984,550,-468,8344,-12,-5,-9,-173,-178,-266
17.037999999999784,582,-488,8368,-12,9,-14,-169,-182,-274
17.059999999999945,554,-424,8338,-9,-3,-9,-164,-187,-267
17.08199999999988,558,-438,8356,-8,0,-8,-163,-186,-264
17.093999999999824,570,-474,8344,-9,4,-8,-175,-188,-264
17.115999999999985,552,-460,8312,-12,-6,-7,-173,-178,-259
17.12799999999993,556,-470,8382,-19,2,-10,-165,-180,-268
17.149999999999864,556,-460,8352,-16,0,-6,-169,-179,-265
17.161999999999807,550,-420,8330,-15,-5,-6,-165,-178,-266
17.18399999999997,534,-414,8402,-16,-1,-7,-164,-179,-255
17.205999999999904,554,-444,8332,-11,-3,-5,-173,-180,-261
17.217999999999847,536,-452,8372,-5,-1,-6,-173,-180,-264
17.24000000000001,532,-484,8352,-12,1,-6,-165,-191,-254
17.251999999999953,490,-438,8352,-11,-8,-7,-161,-180,-264
17.273999999999887,524,-454,8346,-14,1,-3,-161,-175,-256
17.28599999999983,546,-456,8332,-6,-2,-4,-168,-173,-266
17.307999999999993,542,-428,8350,-13,-1,-12,-169,-179,-258
17.320284999999785,540,-490,8334,-14,0,-10,-168,-183,-259
17.34199999999987,578,-426,8334,-9,4,-9,-169,-189,-262
17.363999999999805,546,-474,8338,-8,-6,-11,-170,-196,-259
17.375999999999976,552,-456,8348,-11,4,-9,-164,-174,-267
17.39799999999991,532,-450,8338,-12,1,-6,-165,-178,-256
17.409999999999854,530,-424,8320,-8,0,-7,-171,-179,-267
17.43199999999979,584,-472,8378,-12,1,-13,-174,-179,-260
17.44399999999996,502,-404,8368,-8,-1,-11,-179,-182,-255
17.465999999999894,536,-474,8324,-11,2,-8,-171,-177,-258
17.48799999999983,570,-486,8338,-10,0,-8,-169,-184,-262
17.5,550,-428,8382,-12,-2,-11,-170,-180,-259
17.521999999999935,502,-428,8398,-12,0,-3,-168,-183,-254
17.533999999999878,554,-454,8366,-12,4,-8,-167,-184,-262
17.555999999999813,558,-454,8346,-11,-2,-9,-163,-188,-264
17.567999999999984,538,-466,8330,-13,3,-8,-165,-188,-252
17.589999999999918,524,-444,8368,-11,1,-6,-176,-187,-260
17.611999999999853,612,-424,8312,-9,-8,-8,-168,-175,-259
17.623999999999796,554,-482,8346,-12,1,-12,-167,-189,-272
17.645999999999958,522,-456,8366,-13,0,-6,-167,-184,-260
17.6579999999999,552,-428,8354,-10,-3,-8,-167,-184,-265
17.679999999999836,568,-428,8348,-12,1,-9,-163,-180,-266
17.692000000000007,570,-482,8378,-9,0,-9,-162,-182,-265
17.713999999999942,554,-452,8338,-13,2,-9,-165,-191,-259
17.725999999999885,554,-498,8326,-7,-2,-6,-169,-182,-260
17.74799999999982,568,-448,8350,-13,-1,-6,-170,-178,-268
17.769999999999982,580,-450,8390,-13,0,-7,-168,-165,-256
17.781999999999925,532,-472,8338,-15,-2,-5,-167,-179,-265
17.80399999999986,556,-454,8368,-8,-4,-10,-175,-175,-256
17.815999999999804,560,-424,8330,-12,2,-6,-178,-186,-259
17.837999999999965,588,-456,8320,-9,-5,-11,-165,-180,-266
17.84999999999991,536,-464,8362,-11,1,-7,-162,-187,-265
17.871999999999844,574,-464,8368,-11,3,-8,-162,-189,-262
17.894000000000005,560,-488,8370,-9,-9,-6,-168,-178,-266
17.90599999999995,544,-472,8358,-11,-2,-4,-164,-179,-260
17.927999999999884,548,-416,8350,-16,5,-9,-178,-173,-268
17.939999999999827,534,-448,8324,-13,-2,-5,-164,-187,-262
17.96199999999999,530,-438,8370,-14,-6,-8,-170,-178,-261
17.973999999999933,566,-458,8358,-16,-1,-11,-169,-187,-260
17.995999999999867,550,-474,8354,-10,-1,-7,-162,-179,-258
18.0179999999998,542,-436,8328,-14,3,-8,-167,-179,-267
18.029999999999973,528,-466,8380,-9,-6,-5,-167,-187,-267
18.051999999999907,554,-476,8382,-16,3,-8,-169,-179,-258
18.06399999999985,518,-492,8344,-12,-3,-9,-169,-187,-260
18.085999999999785,586,-456,8360,-8,-1,-8,-159,-194,-260
18.097999999999956,540,-466,8344,-11,1,-6,-165,-180,-266
18.11999999999989,496,-460,8364,-14,-4,-8,-157,-187,-267
18.131999999999834,570,-456,8362,-11,-5,-5,-157,-177,-260
18.153999999999996,568,-444,8370,-11,3,-7,-174,-179,-265
18.17599999999993,492,-484,8344,-10,4,-10,-162,-174,-258
18.187999999999874,540,-464,8372,-11,3,-6,-165,-186,-266
18.20999999999981,538,-430,8314,-10,-2,-8,-174,-182,-265
18.22199999999998,514,-476,8334,-12,2,-2,-167,-182,-260
18.243999999999915,598,-460,8378,-11,0,-5,-168,-183,-261
18.255999999999858,522,-472,8338,-13,-6,-6,-175,-186,-273
18.277999999999793,548,-450,8334,-10,-1,-8,-165,-175,-264
18.299999999999955,534,-494,8350,-10,4,-5,-171,-179,-255
18.311999999999898,538,-484,8328,-10,-8,-9,-167,-184,-267
18.333999999999833,548,-472,8348,-12,3,-5,-163,-180,-261
18.346000000000004,556,-430,8412,-8,0,-6,-169,-189,-260
18.367999999999938,554,-400,8342,-5,-8,-11,-173,-180,-256
18.37999999999988,538,-440,8334,-13,2,-12,-163,-183,-252
18.401999999999816,528,-428,8362,-8,-4,-12,-159,-172,-253
18.423999999999978,542,-440,8340,-9,-6,-4,-162,-187,-255
18.435999999999922,602,-450,8348,-16,4,-4,-171,-184,-262
18.457999999999856,530,-512,8346,-14,-3,-8,-163,-178,-259
18.4699999999998,592,-448,8324,-11,3,-8,-165,-178,-254
18.491999999999962,552,-406,8316,-7,4,-6,-170,-180,-264
18.503999999999905,590,-482,8364,-10,2,-6,-175,-188,-254
18.52599999999984,566,-444,8334,-14,-4,-5,-168,-178,-256
18.537999999999784,544,-468,8360,-10,4,-9,-171,-182,-260
18.559999999999945,536,-484,8338,-12,1,-6,-155,-177,-262
18.58199999999988,562,-452,8304,-15,-2,-7,-170,-183,-264
18.593999999999824,570,-460,8382,-8,1,-8,-171,-177,-272
18.615999999999985,594,-482,8352,-10,1,-8,-178,-173,-249
18.62799999999993,544,-484,8330,-9,-5,-8,-169,-187,-265
18.649999999999864,484,-452,8382,-6,3,-11,-173,-180,-261
18.661999999999807,558,-426,8362,-9,-2,-7,-162,-187,-265
18.68399999999997,530,-494,8296,-8,-4,-8,-178,-188,-259
18.7009979999998,544,-512,8340,-14,4,-6,-161,-186,-271
18.722999999999956,516,-410,8358,-8,-1,-9,-168,-180,-261
18.7349999999999,552,-480,8318,-9,0,-13,-168,-180,-259
18.756999999999834,524,-496,8368,-13,0,-8,-157,-182,-265
18.769000000000005,538,-440,8342,-8,-1,-9,-179,-184,-262
18.79099999999994,532,-464,8332,-10,2,-8,-170,-196,-264
18.802999999999884,608,-436,8342,-7,-2,-7,-170,-173,-266
18.824999999999818,528,-396,8362,-8,-4,-4,-168,-186,-256
18.84699999999998,562,-446,8394,-13,2,-9,-175,-175,-268
18.858999999999924,568,-472,8342,-13,-5,-10,-157,-182,-262
18.880999999999858,534,-450,8350,-10,-2,-4,-173,-193,-261
18.8929999999998,586,-424,8336,-9,-3,-8,-173,-188,-259
18.914999999999964,500,-482,8334,-9,-8,-7,-171,-182,-258
18.926999999999907,512,-454,8316,-14,-2,-11,-169,-172,-265
18.94899999999984,566,-496,8308,-15,2,-12,-173,-180,-259
18.971000000000004,552,-486,8336,-7,-3,-7,-179,-184,-253
18.982999999999947,540,-464,8352,-13,0,-7,-171,-184,-260
19.00499999999988,590,-468,8378,-12,-2,-4,-175,-183,-256
19.016999999999825,516,-404,8362,-8,0,-6,-171,-187,-253
19.038999999999987,566,-482,8360,-10,0,-4,-161,-183,-249
19.05099999999993,580,-454,8348,-9,-4,-4,-161,-191,-264
19.072999999999865,572,-408,8348,-15,1,-6,-167,-184,-258
19.08499999999981,534,-394,8340,-10,-3,-7,-171,-187,-262
19.10699999999997,542,-464,8340,-10,-1,-8,-161,-173,-261
19.128999999999905,554,-490,8370,-10,-5,-11,-173,-193,-261
19.14099999999985,498,-412,8330,-11,-1,-9,-168,-180,-252
19.162999999999784,548,-458,8350,-13,2,-7,-173,-178,-266
19.174999999999955,568,-518,8312,-6,-1,-7,-163,-183,-266
19.19699999999989,532,-398,8368,-14,-1,-11,-173,-178,-256
19.208999999999833,542,-472,8352,-8,0,-7,-162,-187,-258
19.230999999999995,570,-438,8360,-10,2,-11,-163,-183,-259
19.25299999999993,550,-454,8346,-15,2,-9,-165,-180,-261
19.264999999999873,520,-452,8370,-12,-2,-14,-163,-180,-261
19.286999999999807,512,-454,8360,-9,-4,-8,-171,-179,-255
19.298999999999978,526,-502,8368,-9,3,-6,-167,-187,-258
19.320999999999913,580,-540,8368,-9,0,-5,-164,-179,-260
19.332999999999856,548,-500,8322,-13,2,-10,-163,-180,-256
19.35499999999979,554,-468,8322,-5,4,-6,-173,-186,-256
19.366999999999962,550,-464,8368,-15,0,-5,-164,-172,-258
19.388999999999896,522,-460,8322,-10,-2,-10,-167,-182,-262
19.41099999999983,538,-434,8350,-8,-3,-7,-176,-182,-253
19.423000000000002,492,-430,8368,-11,8,-8,-169,-187,-255
19.444999999999936,558,-452,8334,-10,-4,-8,-169,-182,-260
19.45699999999988,502,-452,8368,-8,1,-6,-173,-180,-268
19.478999999999814,548,-440,8370,-10,7,-5,-164,-187,-258
19.490999999999985,556,-438,8378,-9,-8,-8,-169,-182,-258
19.51299999999992,540,-466,8406,-12,5,-5,-164,-187,-255
19.534999999999854,540,-432,8348,-12,2,-11,-173,-183,-256
19.546999999999798,522,-440,8322,-7,1,1,-174,-182,-260
19.56899999999996,564,-476,8356,-10,1,-7,-161,-180,-261
19.580999999999904,558,-464,8334,-14,0,-5,-170,-173,-256
19.602999999999838,566,-436,8310,-11,-7,-7,-161,-178,-259
19.61500000000001,538,-468,8338,-10,2,-8,-170,-180,-261
19.636999999999944,522,-468,8308,-6,-4,-2,-168,-186,-256
19.658999999999878,542,-476,8316,-14,0,-9,-173,-183,-266
19.67099999999982,532,-470,8360,-13,4,-9,-173,-183,-254
19.692999999999984,566,-402,8354,-14,-4,-5,-174,-184,-265
19.704999999999927,564,-460,8364,-14,-2,-6,-174,-172,-262
19.72699999999986,576,-440,8354,-3,0,-8,-168,-186,-268
19.738999999999805,568,-466,8328,-10,-3,-9,-165,-188,-261
19.760999999999967,548,-410,8302,-8,3,-5,-169,-192,-251
19.77299999999991,566,-498,8320,-8,4,-4,-171,-174,-260
19.794999999999845,556,-456,8334,-7,-7,-8,-175,-183,-261
19.817000000000007,576,-444,8342,-12,-5,-3,-162,-182,-260
19.82899999999995,570,-478,8362,-14,4,-12,-165,-186,-266
19.850999999999885,534,-474,8354,-9,2,-7,-165,-175,-261
19.86299999999983,522,-404,8384,-9,-2,-13,-168,-183,-261
19.88499999999999,584,-470,8370,-9,-1,-11,-171,-177,-258
19.896999999999935,546,-442,8362,-11,0,-7,-171,-184,-262
19.91899999999987,574,-480,8342,-14,-1,-8,-173,-175,-264
19.940999999999804,552,-454,8344,-10,1,-9,-184,-177,-262
19.952999999999975,558,-466,8328,-9,0,-7,-164,-184,-260
19.97499999999991,560,-406,8358,-15,-1,-10,-165,-173,-254
19.986999999999853,570,-468,8352,-12,-3,-6,-170,-180,-249
20.008999999999787,556,-468,8356,-10,0,-7,-176,-184,-258
20.020999999999958,534,-424,8332,-9,4,-10,-173,-180,-264
20.042999999999893,568,-454,8340,-12,-8,-6,-173,-178,-254
20.064999999999827,540,-506,8362,-13,7,-7,-163,-188,-261
20.076999999999998,552,-456,8362,-14,0,-9,-174,-179,-255
20.098999999999933,536,-432,8354,-8,-4,-9,-168,-180,-273
20.110999999999876,508,-470,8356,-10,6,-7,-176,-179,-260
20.13299999999981,526,-470,8362,-11,2,-10,-170,-178,-256
20.144999999999982,570,-470,8292,-10,2,-7,-165,-180,-261
20.166999999999916,566,-466,8360,-11,6,-5,-176,-174,-262
20.17899999999986,544,-414,8316,-11,-2,-6,-164,-177,-258
20.200999999999794,506,-462,8290,-13,-5,-7,-167,-177,-270
20.222999999999956,534,-484,8400,-11,3,-8,-168,-178,-266
20.2349999999999,510,-460,8370,-12,-1,-6,-168,-180,-261
20.256999999999834,552,-454,8340,-17,-1,-7,-173,-183,-261
20.269000000000005,552,-482,8352,-10,1,-9,-168,-188,-254
20.29099999999994,548,-480,8362,-12,-5,-6,-169,-187,-260
20.302999999999884,590,-466,8382,-13,-3,-10,-181,-177,-262
20.324999999999818,578,-494,8320,-12,-1,-10,-169,-179,-246
20.34699999999998,554,-458,8326,-11,-6,-7,-169,-184,-267
20.358999999999924,566,-454,8334,-9,-2,-11,-162,-177,-262
20.380999999999858,570,-460,8334,-8,-5,-9,-157,-177,-258
20.3929999999998,580,-448,8336,-12,-6,-6,-171,-177,-260
20.414999999999964,570,-426,8334,-11,3,-10,-164,-177,-260
20.426999999999907,614,-418,8400,-11,-7,-4,-173,-175,-254
20.44899999999984,558,-460,8346,-11,-2,-7,-170,-186,-259
20.460999999999785,566,-428,8336,-13,1,-7,-176,-179,-262
20.482999999999947,538,-446,8380,-15,1,-5,-176,-177,-265
20.50499999999988,512,-480,8330,-8,-1,-6,-168,-180,-259
20.516999999999825,576,-460,8354,-15,-1,-8,-167,-192,-260
20.538999999999987,564,-482,8350,-14,1,-8,-176,-184,-262
20.55099999999993,526,-478,8356,-17,0,-12,-168,-180,-264
20.572999999999865,588,-452,8352,-6,-3,-6,-162,-182,-258
20.58499999999981,564,-450,8336,-10,2,-2,-171,-187,-255
20.60699999999997,550,-502,8328,-12,-2,-12,-164,-179,-265
20.628999999999905,552,-426,8308,-7,-6,-5,-170,-191,-259
20.64099999999985,534,-440,8352,-9,7,-10,-171,-182,-260
20.662999999999784,564,-470,8350,-14,-5,-7,-167,-182,-262
20.674999999999955,568,-466,8326,-11,-10,-7,-174,-184,-262
20.701998000000003,602,-454,8354,-9,2,-13,-167,-189,-262
20.713999999999942,602,-464,8314,-13,2,-6,-165,-173,-264
20.725999999999885,554,-454,8312,-12,-3,-11,-178,-183,-261
20.74799999999982,536,-476,8338,-10,2,-6,-158,-180,-259
20.769999999999982,558,-416,8374,-8,-4,-7,-168,-191,-266
20.781999999999925,518,-426,8354,-13,-1,-8,-171,-189,-260
20.80399999999986,566,-458,8348,-15,1,-9,-165,-180,-259
20.815999999999804,534,-434,8340,-10,3,-5,-159,-187,-262
20.837999999999965,570,-456,8344,-12,-1,-6,-170,-183,-264
20.84999999999991,536,-406,8358,-9,-1,-8,-174,-184,-260
20.871999999999844,510,-446,8372,-10,-1,-6,-164,-179,-255
20.894000000000005,546,-480,8340,-10,1,-7,-163,-183,-271
20.90599999999995,566,-450,8320,-12,0,-7,-175,-175,-264
20.927999999999884,560,-420,8364,-9,0,-4,-165,-173,-259
20.939999999999827,570,-480,8360,-11,4,-7,-165,-180,-259
20.96199999999999,510,-436,8320,-11,-6,-6,-173,-175,-266
20.973999999999933,508,-482,8338,-8,4,-10,-169,-179,-267
20.995999999999867,548,-474,8322,-10,8,-9,-167,-189,-265
21.008284999999887,482,-444,8366,-13,-4,-12,-179,-182,-260
21.03099999999995,562,-480,8390,-13,-2,-7,-167,-184,-255
21.052999999999884,552,-450,8346,-12,-3,-12,-164,-182,-265
21.064999999999827,554,-488,8326,-8,-8,-6,-174,-179,-262
21.08699999999999,514,-508,8334,-10,7,-8,-171,-187,-255
21.098999999999933,544,-458,8364,-11,1,-8,-159,-182,-258
21.120999999999867,566,-464,8314,-11,-2,-5,-165,-186,-259
21.13299999999981,548,-450,8306,-12,2,-10,-176,-182,-265
21.154999999999973,550,-442,8316,-10,-8,-6,-167,-184,-258
21.166999999999916,548,-430,8316,-9,-4,-8,-168,-188,-259
21.18899999999985,556,-456,8366,-7,5,-6,-175,-178,-261
21.210999999999785,546,-494,8340,-16,-3,-3,-165,-186,-268
21.222999999999956,574,-456,8330,-15,5,-10,-157,-189,-267
21.24499999999989,552,-458,8332,-11,-3,-5,-173,-186,-264
21.256999999999834,512,-466,8384,-8,-2,-8,-161,-175,-261
21.278999999999996,546,-480,8334,-12,5,-6,-163,-173,-264
21.29099999999994,580,-454,8384,-12,2,-10,-176,-174,-258
21.312999999999874,544,-458,8330,-6,-4,-10,-167,-179,-265
21.33499999999981,572,-438,8322,-14,6,-7,-180,-186,-261
21.34699999999998,546,-450,8348,-9,-2,-5,-162,-192,-267
21.368999999999915,534,-458,8338,-8,-5,-8,-175,-183,-256
21.380999999999858,532,-432,8384,-8,0,-4,-169,-189,-258
21.402999999999793,528,-468,8298,-9,-3,-8,-170,-188,-259
21.414999999999964,550,-452,8380,-3,-4,-4,-168,-183,-261
21.436999999999898,574,-438,8344,-14,2,-7,-167,-177,-267
21.458999999999833,592,-466,8360,-11,2,-2,-181,-187,-260
21.471000000000004,546,-432,8342,-9,-1,-8,-169,-184,-267
21.492999999999938,588,-454,8368,-11,5,-11,-176,-184,-258
21.50499999999988,592,-472,8352,-13,-2,-10,-169,-187,-262
21.526999999999816,482,-470,8362,-9,1,-11,-167,-182,-262
21.538999999999987,540,-450,8348,-12,3,-5,-164,-184,-265
21.560999999999922,558,-446,8364,-10,-4,-8,-170,-186,-266
21.572999999999865,528,-444,8382,-11,5,-5,-164,-179,-262
21.5949999999998,534,-506,8348,-10,-4,-11,-169,-192,-260
21.616999999999962,562,-454,8372,-12,-3,-6,-164,-179,-262
21.628999999999905,536,-398,8330,-14,-2,-6,-169,-174,-267
21.65099999999984,592,-442,8340,-8,-6,-12,-165,-180,-271
21.662999999999784,578,-440,8336,-14,1,-9,-159,-187,-260
21.684999999999945,548,-514,8320,-10,4,-8,-169,-182,-258
21.69699999999989,588,-464,8336,-8,-5,-5,-163,-183,-261
21.718999999999824,562,-452,8352,-10,-1,-8,-170,-178,-254
21.740999999999985,566,-436,8360,-10,4,-5,-170,-191,-254
21.75299999999993,564,-492,8370,-9,-2,-10,-174,-172,-260
21.774999999999864,566,-436,8308,-10,-3,-4,-167,-172,-260
21.786999999999807,586,-444,8328,-13,7,-7,-167,-182,-260
21.80899999999997,570,-478,8356,-7,-5,-6,-174,-184,-255
21.820999999999913,606,-500,8350,-10,4,-8,-170,-178,-264
21.842999999999847,588,-452,8342,-9,4,-9,-164,-182,-265
21.855284999999867,528,-472,8358,-5,-1,-7,-167,-177,-262
21.876999999999953,602,-462,8360,-11,-2,-7,-167,-184,-265
21.898999999999887,532,-438,8336,-9,-3,-8,-164,-189,-270
21.91099999999983,530,-446,8334,-12,0,-5,-168,-188,-266
21.932999999999993,546,-420,8344,-9,1,-4,-165,-175,-268
21.944999999999936,498,-458,8308,-14,-6,-6,-168,-183,-247
21.96699999999987,510,-396,8302,-13,2,-9,-169,-187,-262
21.978999999999814,490,-476,8330,-10,0,-7,-167,-189,-265
22.000999999999976,544,-470,8316,-11,-4,-7,-174,-187,-265
22.02299999999991,466,-416,8264,-11,4,-7,-164,-187,-258
22.034999999999854,526,-472,8324,-11,-4,-9,-170,-173,-261
22.05699999999979,568,-462,8342,-11,-4,-8,-169,-182,-262
22.06899999999996,556,-480,8328,-9,3,-7,-167,-184,-258
22.090999999999894,528,-448,8304,-6,-3,-8,-169,-177,-248
22.102999999999838,558,-456,8318,-5,-3,-5,-165,-178,-254
22.125,564,-454,8334,-5,-5,-7,-167,-184,-262
22.146999999999935,526,-454,8344,-14,-1,-12,-161,-178,-256
22.158999999999878,542,-422,8364,-9,1,-6,-169,-187,-251
22.180999999999813,612,-446,8300,-7,-1,-1,-162,-194,-265
22.192999999999984,572,-450,8312,-8,0,-9,-167,-177,-267
22.214999999999918,484,-474,8346,-8,3,-8,-163,-180,-259
22.22699999999986,540,-458,8320,-7,-4,-10,-170,-180,-261
22.248999999999796,566,-444,8294,-11,-1,-4,-169,-184,-262
22.260999999999967,534,-468,8364,-14,7,-3,-163,-170,-259
22.2829999999999,514,-468,8328,-9,1,-5,-167,-177,-260
22.304999999999836,546,-452,8344,-10,1,-6,-167,-174,-260
22.317000000000007,476,-454,8340,-8,3,-2,-171,-174,-260
22.338999999999942,540,-530,8320,-12,-2,-8,-164,-184,-255
22.350999999999885,570,-446,8390,-10,2,-5,-167,-174,-265
22.37299999999982,554,-462,8340,-14,2,-11,-173,-173,-256
22.38499999999999,534,-462,8320,-12,0,-5,-164,-172,-265
22.406999999999925,540,-396,8318,-13,-2,-4,-168,-188,-259
22.42899999999986,594,-484,8352,-14,-1,-8,-162,-184,-267
22.440999999999804,566,-460,8310,-12,-2,-3,-163,-180,-264
22.462999999999965,554,-404,8328,-13,4,-7,-171,-187,-265
22.47499999999991,566,-424,8370,-9,-5,-7,-171,-182,-262
22.496999999999844,572,-460,8322,-11,-1,-8,-173,-186,-259
22.508999999999787,530,-462,8330,-11,6,-7,-174,-189,-260
22.53099999999995,570,-450,8340,-10,-13,-5,-165,-178,-261
22.552999999999884,536,-462,8312,-12,0,-9,-162,-182,-265
22.564999999999827,558,-424,8370,-10,2,-6,-167,-179,-260
22.58699999999999,528,-476,8350,-6,-7,-10,-168,-183,-268
22.598999999999933,566,-470,8330,-14,5,-8,-162,-177,-267
22.620999999999867,556,-514,8322,-9,2,-12,-164,-182,-267
22.63299999999981,538,-464,8348,-6,-7,-8,-171,-177,-270
22.654999999999973,534,-458,8320,-8,9,-5,-165,-173,-261
22.666999999999916,556,-436,8332,-13,-1,-13,-176,-179,-262
22.68899999999985,570,-480,8280,-11,-1,-5,-176,-184,-262
22.70599799999991,538,-470,8360,-12,9,-9,-167,-189,-258
22.727999999999838,546,-490,8334,-9,3,-5,-168,-186,-259
22.74000000000001,562,-420,8344,-10,5,-4,-162,-177,-260
22.761999999999944,530,-450,8358,-13,3,-9,-174,-177,-265
22.773999999999887,552,-438,8338,-11,-3,-9,-170,-183,-261
22.79599999999982,568,-454,8316,-13,3,-7,-174,-179,-262
22.807999999999993,572,-478,8324,-16,2,-11,-176,-179,-267
22.829999999999927,516,-468,8346,-9,-1,-8,-159,-177,-267
22.85199999999986,566,-446,8336,-15,1,-6,-169,-179,-260
22.863999999999805,514,-472,8346,-9,-1,-6,-171,-187,-260
22.885999999999967,524,-412,8338,-7,-5,-8,-171,-174,-260
22.89799999999991,588,-432,8348,-13,7,-6,-162,-179,-267
22.919999999999845,542,-508,8386,-6,1,-9,-182,-175,-259
22.93199999999979,554,-434,8346,-6,-5,-5,-165,-188,-256
22.95399999999995,560,-452,8312,-15,3,-6,-164,-182,-267
22.975999999999885,560,-434,8350,-9,1,-8,-164,-179,-267
22.98799999999983,568,-444,8358,-13,1,-3,-162,-179,-272
23.00999999999999,594,-444,8354,-9,3,-6,-170,-183,-264
23.021999999999935,590,-440,8360,-13,-8,-7,-171,-187,-262
23.04399999999987,522,-470,8364,-15,-2,-9,-170,-175,-271
23.055999999999813,528,-430,8386,-12,-1,-4,-171,-179,-265
23.077999999999975,550,-512,8354,-11,-2,-8,-175,-186,-264
23.09999999999991,574,-456,8330,-11,1,-10,-171,-184,-265
23.111999999999853,530,-458,8342,-9,2,-12,-176,-179,-265
23.133999999999787,556,-484,8376,-14,-5,-7,-169,-174,-267
23.145999999999958,526,-436,8324,-12,2,-8,-161,-183,-266
23.167999999999893,548,-482,8338,-15,-6,-6,-168,-186,-261
23.179999999999836,548,-448,8344,-11,2,-10,-181,-182,-260
23.201999999999998,550,-478,8338,-8,2,-8,-157,-182,-267
23.213999999999942,554,-514,8352,-10,-1,-5,-163,-178,-259
23.235999999999876,570,-474,8358,-10,4,-7,-165,-180,-261
23.25799999999981,550,-510,8342,-10,-5,-3,-161,-173,-261
23.269999999999982,568,-402,8370,-10,-6,-6,-170,-183,-264
23.291999999999916,538,-462,8272,-10,-2,-10,-170,-180,-268
23.30399999999986,550,-476,8346,-14,-5,-8,-173,-175,-264
23.325999999999794,518,-476,8334,-10,4,-3,-170,-175,-259
23.337999999999965,528,-440,8360,-11,-1,-10,-171,-189,-258
23.3599999999999,564,-542,8350,-19,2,-9,-173,-183,-261
23.381999999999834,534,-460,8350,-12,-1,-9,-162,-182,-260
23.394000000000005,566,-438,8336,-14,1,-9,-167,-189,-262
23.41599999999994,522,-476,8338,-12,0,-9,-178,-186,-264
23.427999999999884,540,-484,8358,-10,0,-7,-175,-186,-261
23.449999999999818,552,-450,8350,-9,0,-6,-173,-180,-249
23.46199999999999,538,-460,8310,-11,-4,-3,-173,-180,-261
23.483999999999924,556,-482,8326,-10,-1,-9,-168,-180,-256
23.496284999999943,504,-438,8374,-9,7,-7,-178,-178,-261
23.5179999999998,542,-452,8352,-10,-2,-11,-169,-187,-255
23.539999999999964,530,-456,8316,-12,-1,-11,-171,-174,-267
23.551999999999907,520,-462,8340,-10,-2,-5,-168,-183,-259
23.57399999999984,562,-442,8376,-9,-1,-7,-167,-179,-260
23.585999999999785,578,-498,8334,-13,7,-4,-170,-178,-259
23.607999999999947,526,-476,8366,-11,-3,-8,-173,-183,-268
23.61999999999989,582,-464,8352,-10,-1,-9,-164,-182,-253
23.641999999999825,540,-470,8356,-5,2,-9,-169,-179,-260
23.663999999999987,560,-438,8304,-8,0,-7,-162,-182,-270
23.67599999999993,550,-476,8346,-13,3,-5,-167,-179,-255
23.697999999999865,546,-462,8362,-9,-3,-8,-176,-179,-262
23.70999999999981,544,-480,8360,-4,0,-10,-163,-193,-256
23.73199999999997,558,-454,8326,-14,3,-8,-168,-188,-271
23.743999999999915,528,-462,8354,-15,-3,-7,-175,-178,-264
23.76599999999985,522,-452,8356,-9,-6,-6,-174,-192,-262
23.787999999999784,560,-452,8366,-13,-3,-9,-167,-182,-267
23.799999999999955,542,-424,8360,-9,-2,-11,-179,-184,-267
23.82199999999989,518,-434,8310,-12,-2,-5,-170,-180,-266
23.833999999999833,532,-492,8368,-13,4,-4,-167,-187,-258
23.855999999999995,566,-482,8370,-9,2,-8,-159,-192,-260
23.867999999999938,594,-500,8314,-15,-3,-9,-164,-182,-260
23.889999999999873,552,-462,8340,-7,-1,-7,-168,-178,-266
23.901999999999816,552,-472,8316,-13,-4,-8,-170,-183,-259
23.923999999999978,530,-442,8350,-15,0,-7,-165,-186,-266
23.945999999999913,522,-454,8340,-12,-3,-6,-163,-196,-259
23.957999999999856,568,-492,8366,-4,-1,-8,-174,-177,-255
23.97999999999979,598,-498,8336,-10,0,-8,-165,-188,-254
23.991999999999962,566,-448,8378,-9,1,-9,-175,-188,-259
24.013999999999896,580,-426,8332,-7,2,-6,-170,-183,-259
24.02599999999984,508,-450,8342,-13,-1,-8,-170,-193,-259
24.048000000000002,544,-508,8318,-12,-3,-4,-171,-177,-270
24.069999999999936,540,-418,8354,-15,2,-11,-171,-177,-258
24.08199999999988,540,-454,8382,-11,1,-8,-162,-184,-267
24.103999999999814,560,-470,8352,-12,-2,-10,-173,-183,-256
24.115999999999985,550,-472,8360,-11,6,-8,-167,-192,-260
24.13799999999992,510,-438,8350,-13,-5,-6,-173,-180,-264
24.149999999999864,510,-488,8354,-11,-6,-10,-167,-174,-265
24.171999999999798,536,-440,8386,-15,5,-11,-165,-178,-254
24.19399999999996,536,-448,8366,-9,-4,-8,-171,-179,-270
24.205999999999904,504,-416,8326,-12,3,-10,-164,-179,-272
24.227999999999838,552,-446,8366,-14,6,-11,-174,-184,-258
24.24000000000001,542,-438,8326,-9,-5,-7,-169,-189,-258
24.261999999999944,638,-490,8346,-19,0,-8,-167,-179,-262
24.273999999999887,572,-476,8392,-12,-2,-6,-170,-188,-266
24.29599999999982,558,-448,8382,-14,-4,-8,-170,-183,-264
24.307999999999993,508,-412,8352,-7,-1,-6,-167,-184,-265
24.329999999999927,562,-430,8356,-13,-2,-5,-170,-183,-271
24.35199999999986,530,-448,8348,-11,-5,-5,-173,-186,-271
24.363999999999805,530,-404,8338,-13,-4,-9,-164,-174,-255
24.385999999999967,516,-458,8372,-13,-3,-11,-165,-193,-252
24.39799999999991,578,-444,8390,-11,1,-5,-175,-180,-259
24.419999999999845,546,-430,8300,-14,-2,-11,-169,-177,-262
24.43199999999979,544,-472,8352,-15,-1,-8,-168,-175,-264
24.45399999999995,568,-494,8324,-8,0,-7,-164,-189,-262
24.475999999999885,498,-504,8350,-9,-2,-9,-170,-183,-264
24.48799999999983,478,-488,8366,-10,-1,-7,-173,-183,-249
24.50999999999999,526,-460,8324,-14,6,-8,-164,-192,-267
24.521999999999935,606,-490,8342,-7,-7,-10,-171,-177,-255
24.54399999999987,558,-458,8360,-11,2,-9,-165,-183,-264
24.555999999999813,562,-454,8320,-10,3,-7,-168,-180,-268
24.577999999999975,600,-488,8300,-10,-4,-8,-167,-192,-262
24.59999999999991,518,-428,8340,-16,1,-9,-170,-186,-271
24.611999999999853,622,-460,8350,-14,1,-8,-171,-187,-265
24.633999999999787,588,-426,8308,-11,-2,-9,-168,-188,-259
24.645999999999958,546,-402,8322,-7,2,-2,-181,-179,-258
24.667999999999893,586,-452,8336,-17,-3,-4,-165,-191,-261
24.679999999999836,544,-412,8330,-10,1,-7,-170,-186,-266
24.706997999999885,578,-442,8382,-9,-2,-8,-165,-180,-268
24.718999999999824,516,-410,8334,-10,2,-9,-163,-186,-271
24.740999999999985,556,-464,8350,-15,-4,-9,-169,-187,-265
24.75299999999993,580,-432,8320,-12,-2,-6,-168,-178,-266
24.774999999999864,568,-476,8340,-13,0,-6,-174,-182,-251
24.786999999999807,588,-438,8348,-14,-5,-3,-174,-174,-265
24.80899999999997,512,-508,8296,-14,0,-10,-168,-188,-256
24.820999999999913,526,-456,8354,-11,-3,-6,-171,-192,-262
24.842999999999847,516,-464,8332,-9,0,-9,-164,-174,-258
24.85499999999979,592,-490,8308,-11,5,-4,-168,-178,-268
24.876999999999953,550,-416,8348,-15,1,-6,-167,-184,-258
24.898999999999887,550,-452,8328,-8,-2,-6,-171,-187,-267
24.91099999999983,546,-464,8326,-15,-4,-9,-174,-179,-262
24.932999999999993,584,-460,8326,-12,-2,-6,-165,-180,-264
24.944999999999936,524,-448,8340,-5,-4,-7,-175,-188,-264
24.96699999999987,548,-448,8382,-10,-3,-9,-171,-182,-255
24.978999999999814,568,-464,8380,-12,-2,-4,-167,-189,-262
25.000999999999976,540,-434,8356,-17,-3,-8,-165,-188,-256
25.02299999999991,578,-454,8346,-11,3,-6,-179,-174,-265
25.034999999999854,526,-466,8332,-13,-1,-9,-178,-175,-264
25.05699999999979,576,-430,8338,-11,-2,-10,-161,-183,-254
25.06899999999996,548,-422,8352,-14,3,-9,-162,-174,-262
25.090999999999894,582,-438,8346,-8,1,-7,-169,-182,-258
25.102999999999838,550,-428,8354,-8,-3,-6,-168,-180,-271
25.125,558,-446,8310,-14,-5,-5,-164,-174,-267
25.146999999999935,554,-486,8332,-10,-2,-5,-167,-179,-258
25.158999999999878,562,-422,8298,-13,-4,-8,-169,-179,-267
25.180999999999813,564,-432,8346,-12,-4,-3,-171,-177,-265
25.192999999999984,546,-456,8358,-12,-3,-4,-171,-189,-255
25.214999999999918,556,-484,8316,-8,-1,-8,-174,-184,-260
25.22699999999986,542,-448,8334,-11,4,-6,-165,-168,-256
25.248999999999796,548,-446,8362,-19,0,-8,-179,-187,-255
25.260999999999967,584,-480,8386,-11,-2,-8,-176,-177,-260
25.2829999999999,592,-400,8336,-8,2,-6,-175,-193,-268
25.304999999999836,538,-444,8316,-15,0,-7,-173,-180,-259
25.317000000000007,560,-446,8356,-11,-9,-6,-173,-183,-261
25.338999999999942,580,-446,8346,-12,1,-9,-180,-186,-264
25.350999999999885,534,-470,8284,-12,3,-9,-165,-180,-259
25.37299999999982,528,-518,8340,-9,-7,-8,-169,-187,-277
25.38499999999999,518,-510,8382,-11,2,-9,-176,-179,-267
25.406999999999925,584,-464,8358,-13,-3,-10,-176,-182,-260
25.42899999999986,568,-492,8326,-13,-1,-8,-161,-188,-264
25.440999999999804,562,-454,8346,-10,0,-8,-162,-184,-255
25.462999999999965,506,-412,8336,-10,4,-6,-175,-183,-249
25.47499999999991,544,-466,8318,-10,-1,-11,-170,-188,-261
25.496999999999844,548,-480,8326,-10,-1,-8,-174,-189,-262
25.508999999999787,512,-474,8320,-12,-1,-6,-159,-179,-260
25.53099999999995,588,-462,8308,-13,2,-9,-169,-179,-265
25.542999999999893,564,-498,8334,-10,-4,-10,-170,-183,-266
25.564999999999827,516,-438,8356,-13,3,-7,-168,-186,-261
25.58699999999999,538,-420,8370,-13,-2,-6,-163,-173,-259
25.598999999999933,566,-448,8396,-11,0,-7,-168,-180,-266
25.620999999999867,536,-470,8302,-11,1,-7,-173,-188,-259
25.63299999999981,564,-436,8304,-14,0,-11,-173,-183,-252
25.654999999999973,538,-456,8354,-16,4,-7,-173,-178,-261
25.666999999999916,530,-484,8328,-11,-8,-6,-171,-179,-260
25.68899999999985,528,-454,8354,-11,5,-6,-164,-174,-251
25.710999999999785,566,-470,8304,-8,-2,-8,-170,-188,-259
25.722999999999956,536,-464,8348,-11,-1,-4,-171,-189,-270
25.74499999999989,516,-470,8348,-9,5,-7,-169,-179,-262
25.756999999999834,514,-476,8320,-10,-2,-13,-164,-184,-265
25.778999999999996,514,-460,8324,-13,1,-11,-164,-187,-265
25.79099999999994,528,-514,8332,-9,-4,-8,-169,-187,-260
25.812999999999874,530,-486,8394,-12,0,-11,-161,-175,-259
25.83499999999981,558,-408,8354,-11,0,-12,-175,-186,-261
25.84699999999998,598,-428,8332,-13,-3,-9,-159,-179,-255
25.868999999999915,544,-446,8352,-16,2,-7,-173,-186,-261
25.880999999999858,558,-490,8352,-11,1,-7,-171,-172,-255
25.902999999999793,546,-484,8354,-16,-2,-8,-159,-184,-267
25.914999999999964,580,-462,8338,-12,1,-10,-164,-187,-267
25.936999999999898,546,-434,8344,-13,-3,-6,-168,-180,-271
25.94899999999984,496,-490,8344,-11,-5,-7,-167,-189,-265
25.971000000000004,592,-450,8352,-11,-1,-6,-164,-182,-260
25.992999999999938,548,-426,8360,-9,-1,-7,-164,-169,-265
26.00499999999988,526,-490,8376,-9,-3,-6,-165,-186,-261
26.026999999999816,556,-470,8310,-12,-6,-7,-170,-191,-259
26.038999999999987,566,-480,8394,-11,-1,-6,-164,-189,-262
26.060999999999922,580,-432,8330,-6,1,-12,-164,-177,-265
26.072999999999865,536,-464,8356,-9,-3,-8,-174,-184,-265
26.0949999999998,572,-442,8338,-15,-2,-7,-174,-192,-265
26.116999999999962,546,-450,8360,-14,-1,-4,-164,-184,-262
26.128999999999905,564,-460,8310,-11,3,-10,-161,-183,-264
26.15099999999984,556,-430,8358,-11,0,-12,-164,-187,-262
26.162999999999784,530,-454,8334,-6,0,-9,-170,-180,-261
26.184999999999945,576,-468,8326,-14,-3,-8,-163,-188,-247
26.19699999999989,558,-448,8342,-11,4,-10,-168,-186,-261
26.218999999999824,538,-468,8372,-14,-2,-7,-165,-180,-264
26.240999999999985,544,-470,8304,-14,2,-6,-167,-179,-262
26.25299999999993,524,-478,8348,-9,-3,-6,-167,-182,-251
26.274999999999864,522,-446,8348,-9,1,-3,-164,-179,-255
26.286999999999807,588,-474,8322,-9,0,-7,-169,-184,-258
26.30899999999997,542,-474,8350,-16,-1,-10,-163,-186,-259
26.320999999999913,592,-448,8322,-11,1,-12,-167,-182,-262
26.342999999999847,554,-478,8316,-14,-4,-7,-162,-179,-262
26.35499999999979,568,-426,8368,-10,1,-9,-168,-180,-264
26.376999999999953,538,-490,8390,-11,1,-10,-169,-184,-262
26.398999999999887,568,-450,8358,-9,1,-5,-165,-183,-261
26.41099999999983,532,-494,8328,-10,4,-6,-169,-187,-262
26.432999999999993,600,-472,8394,-13,-2,-8,-174,-179,-258
26.444999999999936,562,-456,8340,-9,-5,-11,-170,-180,-259
26.46699999999987,544,-414,8334,-13,4,-8,-158,-178,-264
26.478999999999814,570,-468,8322,-13,1,-11,-163,-191,-259
26.500999999999976,558,-418,8324,-9,-6,-9,-169,-194,-262
26.52299999999991,542,-476,8356,-15,2,-6,-167,-187,-260
26.534999999999854,568,-428,8360,-11,-1,-11,-173,-180,-261
26.55699999999979,598,-456,8376,-9,2,-6,-164,-187,-258
26.56899999999996,554,-460,8300,-13,0,-8,-175,-178,-266
26.590999999999894,530,-456,8384,-12,-3,-12,-168,-180,-264
26.602999999999838,528,-404,8366,-8,6,-11,-169,-179,-251
26.625,560,-466,8350,-9,-2,-6,-179,-179,-267
26.637284999999792,568,-476,8338,-9,-2,-8,-168,-183,-259
26.658999999999878,530,-512,8366,-10,7,-7,-167,-194,-270
26.680999999999813,540,-464,8380,-10,-8,-11,-169,-174,-260
26.692999999999984,520,-432,8326,-9,3,-8,-168,-180,-261
26.709997999999814,570,-446,8364,-8,3,-7,-168,-175,-259
26.73199999999997,578,-460,8364,-11,-1,-10,-171,-184,-258
26.743999999999915,542,-478,8358,-10,1,-3,-167,-189,-265
26.76599999999985,548,-438,8360,-8,3,-7,-170,-180,-259
26.787999999999784,568,-454,8342,-5,-5,-5,-173,-188,-266
26.799999999999955,554,-474,8342,-15,0,-8,-156,-180,-259
26.82199999999989,512,-442,8358,-12,-3,-9,-171,-187,-255
26.833999999999833,570,-464,8342,-14,1,-8,-161,-186,-264
26.855999999999995,542,-472,8334,-9,1,-5,-175,-186,-264
26.867999999999938,588,-432,8358,-11,-3,-3,-158,-180,-266
26.889999999999873,546,-502,8334,-7,0,-7,-163,-186,-266
26.901999999999816,540,-492,8358,-15,0,-9,-175,-180,-268
26.923999999999978,554,-468,8324,-10,-2,-8,-173,-173,-264
26.945999999999913,600,-430,8324,-14,0,-11,-164,-179,-267
26.957999999999856,566,-444,8358,-10,0,-2,-165,-183,-266
26.97999999999979,536,-460,8320,-9,0,-5,-163,-191,-259
26.991999999999962,554,-406,8354,-14,0,-5,-170,-175,-266
27.013999999999896,528,-462,8326,-12,0,-7,-170,-188,-259
27.02599999999984,508,-494,8316,-11,-4,-8,-162,-187,-272
27.048000000000002,542,-440,8370,-9,6,-6,-170,-175,-261
27.069999999999936,564,-430,8366,-11,0,-6,-169,-187,-262
27.08199999999988,528,-430,8348,-11,0,-8,-164,-179,-267
27.103999999999814,574,-440,8352,-9,-1,-4,-173,-178,-254
27.115999999999985,574,-480,8366,-12,1,-7,-173,-186,-259
27.13799999999992,526,-474,8334,-9,1,-5,-178,-180,-268
27.149999999999864,540,-454,8352,-7,-3,-7,-164,-177,-262
27.171999999999798,528,-466,8342,-12,-1,-9,-170,-170,-268
27.184284999999818,572,-434,8316,-8,7,-10,-169,-172,-260
27.205999999999904,500,-478,8336,-9,1,-9,-165,-183,-261
27.227999999999838,564,-458,8422,-10,-5,-10,-162,-179,-265
27.24000000000001,584,-474,8342,-8,1,-7,-171,-184,-265
27.261999999999944,570,-464,8346,-13,1,-5,-164,-184,-262
27.273999999999887,566,-432,8348,-8,-6,-8,-170,-170,-266
27.29599999999982,588,-452,8342,-12,6,-9,-161,-173,-264
27.307999999999993,576,-452,8284,-4,-4,-7,-175,-175,-266
27.329999999999927,542,-442,8358,-4,4,-8,-167,-189,-267
27.35199999999986,496,-472,8336,-10,1,-8,-170,-178,-266
27.363999999999805,512,-448,8368,-8,-8,-10,-174,-187,-262
27.385999999999967,550,-422,8304,-8,0,-9,-170,-186,-261
27.39799999999991,550,-464,8376,-13,9,-6,-173,-183,-273
27.419999999999845,532,-468,8342,-11,-8,-4,-165,-180,-266
27.43199999999979,574,-448,8356,-12,-2,-9,-170,-183,-259
27.45399999999995,552,-442,8360,-10,1,-11,-163,-196,-264
27.475999999999885,562,-500,8344,-17,-2,-9,-163,-186,-264
27.48799999999983,548,-428,8334,-11,1,-10,-165,-175,-256
27.50999999999999,550,-422,8326,-16,-2,-8,-171,-184,-260
27.521999999999935,522,-460,8302,-10,-5,-7,-162,-177,-260
27.54399999999987,558,-454,8346,-14,-1,-7,-164,-182,-260
27.555999999999813,580,-420,8368,-13,-4,-9,-168,-183,-264
27.577999999999975,538,-446,8350,-8,0,-7,-165,-180,-259
27.589999999999918,532,-462,8362,-13,4,-7,-173,-191,-259
27.611999999999853,560,-480,8316,-11,-5,-7,-164,-184,-262
27.633999999999787,600,-452,8350,-11,1,-5,-168,-180,-266
27.645999999999958,514,-472,8372,-9,-8,-6,-167,-189,-260
27.667999999999893,560,-480,8376,-15,0,-7,-162,-174,-267
27.679999999999836,586,-452,8346,-12,1,-7,-169,-179,-255
27.701999999999998,542,-430,8366,-11,-4,-9,-165,-183,-259
27.713999999999942,572,-470,8374,-11,-1,-9,-164,-179,-262
27.735999999999876,512,-466,8322,-11,0,-6,-162,-187,-255
27.75799999999981,532,-454,8332,-10,0,-8,-168,-178,-261
27.769999999999982,560,-450,8388,-7,-2,-10,-159,-187,-262
27.791999999999916,580,-488,8346,-15,4,-8,-175,-180,-256
27.80399999999986,572,-436,8312,-11,0,-7,-162,-177,-258
27.825999999999794,606,-484,8388,-10,-1,-6,-168,-180,-259
27.837999999999965,538,-532,8336,-8,-1,-12,-159,-192,-265
27.8599999999999,572,-438,8354,-11,-3,-5,-164,-189,-260
27.881999999999834,568,-436,8314,-9,-3,-12,-161,-188,-261
27.894000000000005,504,-488,8306,-13,0,-10,-167,-182,-260
27.91599999999994,538,-480,8306,-10,1,-10,-168,-178,-252
27.927999999999884,546,-482,8370,-10,-5,-6,-162,-187,-265
27.949999999999818,564,-442,8330,-11,-3,-8,-170,-183,-256
27.96199999999999,562,-470,8330,-13,0,-8,-165,-178,-264
27.983999999999924,584,-452,8338,-11,2,-11,-163,-180,-259
27.995999999999867,530,-448,8342,-4,0,-11,-174,-184,-265
28.0179999999998,566,-460,8356,-10,0,-7,-173,-178,-259
28.039999999999964,542,-480,8354,-6,1,-8,-163,-186,-256
28.051999999999907,574,-480,8296,-15,-4,-7,-171,-184,-258
28.07399999999984,588,-460,8364,-6,3,-12,-165,-178,-268
28.085999999999785,532,-496,8358,-12,3,-9,-162,-194,-255
28.107999999999947,532,-410,8326,-10,-3,-9,-171,-179,-265
28.11999999999989,564,-440,8324,-10,-4,-9,-173,-188,-252
28.141999999999825,572,-416,8390,-14,4,-4,-175,-178,-254
28.163999999999987,540,-460,8340,-9,-4,-8,-173,-188,-261
28.17599999999993,544,-442,8344,-12,-1,-5,-168,-183,-259
28.197999999999865,536,-448,8358,-14,1,-8,-168,-183,-268
28.20999999999981,500,-448,8324,-9,0,-8,-175,-186,-264
28.23199999999997,526,-446,8322,-10,1,-6,-170,-180,-264
28.243999999999915,562,-478,8338,-11,-3,-9,-169,-177,-272
28.26599999999985,528,-450,8282,-11,-3,-8,-162,-182,-265
28.27828499999987,544,-478,8318,-12,1,-10,-164,-184,-265
28.299999999999955,578,-446,8354,-9,-3,-7,-163,-186,-254
28.32199999999989,524,-440,8308,-16,2,-7,-165,-186,-266
28.333999999999833,492,-474,8352,-14,2,-10,-173,-186,-261
28.355999999999995,554,-452,8344,-9,-2,-4,-163,-188,-259
28.367999999999938,558,-418,8332,-10,-1,-9,-162,-184,-265
28.389999999999873,518,-464,8326,-12,1,-6,-163,-183,-266
28.401999999999816,504,-476,8376,-10,-2,-5,-164,-179,-272
28.423999999999978,552,-452,8296,-11,-2,-5,-179,-182,-270
28.445999999999913,550,-440,8320,-10,8,-9,-167,-187,-267
28.457999999999856,596,-454,8360,-9,-2,-10,-164,-182,-260
28.47999999999979,512,-434,8336,-14,-5,-6,-170,-186,-268
28.491999999999962,556,-436,8356,-8,1,-5,-167,-182,-267
28.513999999999896,506,-478,8332,-8,-4,-7,-171,-182,-255
28.52599999999984,494,-442,8360,-16,4,-9,-174,-182,-251
28.548000000000002,618,-460,8350,-16,-4,-6,-168,-180,-256
28.569999999999936,558,-442,8396,-11,0,-10,-168,-188,-247
28.58199999999988,534,-480,8352,-15,2,-3,-164,-179,-262
28.603999999999814,550,-486,8340,-12,-9,-7,-170,-180,-266
28.615999999999985,542,-446,8364,-12,-1,-11,-170,-180,-264
28.63799999999992,548,-470,8356,-17,4,-7,-170,-183,-252
28.649999999999864,522,-478,8364,-10,-5,-7,-171,-182,-260
28.671999999999798,562,-486,8342,-17,-4,-12,-170,-175,-256
28.68399999999997,576,-426,8382,-10,1,-12,-169,-179,-265
28.71099799999979,590,-474,8366,-12,-6,-11,-176,-179,-262
28.722999999999956,588,-458,8354,-6,-2,-7,-167,-177,-265
28.74499999999989,538,-458,8322,-16,-3,-6,-170,-183,-264
28.756999999999834,548,-436,8358,-9,2,-6,-176,-187,-262
28.778999999999996,550,-452,8328,-10,0,-5,-158,-180,-259
28.79099999999994,516,-458,8370,-8,2,-3,-174,-187,-255
28.812999999999874,536,-444,8362,-10,2,-9,-170,-178,-264
28.83499999999981,562,-434,8368,-9,0,-10,-163,-183,-259
28.84699999999998,566,-440,8338,-10,3,-10,-165,-178,-259
28.868999999999915,522,-500,8338,-10,3,-9,-161,-178,-259
28.880999999999858,532,-452,8372,-13,2,-11,-176,-177,-258
28.902999999999793,542,-476,8364,-11,-2,-9,-158,-186,-276
28.914999999999964,552,-422,8332,-12,-3,-8,-161,-180,-273
28.936999999999898,560,-446,8310,-10,-4,-9,-156,-188,-271
28.94899999999984,570,-482,8336,-13,3,-10,-165,-183,-266
28.971000000000004,554,-470,8358,-9,-4,-5,-168,-183,-271
28.992999999999938,552,-462,8388,-13,1,-6,-164,-177,-265
29.00499999999988,574,-440,8316,-11,1,-11,-167,-182,-260
29.026999999999816,558,-428,8322,-10,-4,-7,-180,-178,-266
29.038999999999987,544,-458,8366,-10,-4,-6,-162,-177,-258
29.060999999999922,566,-488,8362,-13,-6,-4,-168,-170,-256
29.072999999999865,602,-424,8332,-11,-2,-7,-162,-182,-258
29.0949999999998,520,-480,8326,-8,3,-6,-170,-188,-249
29.116999999999962,550,-432,8360,-15,3,-8,-157,-182,-270
29.128999999999905,550,-480,8328,-7,-6,-8,-168,-180,-264
29.15099999999984,522,-492,8344,-15,1,-8,-175,-186,-256
29.162999999999784,556,-482,8316,-9,5,-10,-163,-183,-261
29.184999999999945,526,-410,8370,-12,-2,-13,-163,-175,-261
29.19699999999989,544,-498,8360,-12,1,-6,-164,-177,-253
29.218999999999824,570,-474,8362,-7,-3,-4,-167,-177,-258
29.230999999999995,570,-434,8356,-12,5,-7,-165,-186,-268
29.25299999999993,644,-490,8320,-10,-4,-9,-176,-184,-262
29.274999999999864,548,-486,8358,-12,0,-7,-170,-191,-264
29.286999999999807,556,-502,8364,-3,5,-11,-180,-175,-256
29.30899999999997,564,-478,8362,-13,-2,-11,-164,-182,-262
29.320999999999913,490,-414,8308,-10,2,-8,-176,-182,-255
29.342999999999847,542,-420,8350,-12,-3,-4,-158,-175,-261
29.35499999999979,486,-432,8328,-12,3,-8,-165,-183,-266
29.376999999999953,574,-460,8314,-5,3,-7,-164,-179,-267
29.398999999999887,580,-462,8318,-17,-1,-9,-164,-187,-255
29.41099999999983,500,-432,8362,-14,-2,-7,-162,-179,-262
29.432999999999993,536,-432,8338,-9,-2,-8,-165,-183,-271
29.444999999999936,562,-456,8274,-16,2,-5,-165,-183,-264
29.46699999999987,508,-470,8354,-14,0,-11,-169,-187,-260
29.478999999999814,558,-448,8346,-10,-1,-6,-161,-180,-261
29.500999999999976,600,-496,8338,-12,-1,-7,-169,-179,-260
29.52299999999991,538,-426,8314,-10,0,-8,-165,-183,-261
29.534999999999854,556,-446,8356,-13,-2,-12,-170,-178,-264
29.55699999999979,498,-442,8332,-12,1,-6,-167,-177,-258
29.56899999999996,528,-440,8372,-8,-3,-10,-167,-187,-265
29.590999999999894,580,-454,8330,-13,-4,-8,-163,-180,-264
29.602999999999838,598,-430,8360,-10,3,-13,-174,-182,-262
29.625,578,-466,8344,-10,0,-5,-173,-183,-256
29.636999999999944,574,-478,8366,-8,1,-6,-167,-182,-265
29.658999999999878,546,-444,8350,-13,3,-6,-165,-183,-273
29.680999999999813,548,-430,8360,-13,-4,-7,-165,-186,-264
29.692999999999984,566,-432,8366,-11,0,-11,-170,-175,-261
29.714999999999918,530,-530,8350,-13,0,-10,-173,-178,-266
29.72699999999986,506,-446,8330,-9,-3,-5,-165,-170,-261
29.748999999999796,548,-472,8342,-10,4,-6,-175,-183,-268
29.760999999999967,594,-454,8382,-8,-1,-10,-171,-184,-255
29.7829999999999,562,-458,8310,-9,1,-8,-171,-172,-262
29.804999999999836,534,-454,8288,-10,-2,-5,-171,-189,-265
29.817000000000007,534,-464,8332,-13,-2,-10,-165,-180,-264
29.838999999999942,560,-442,8372,-14,-1,-5,-168,-188,-259
29.850999999999885,524,-462,8318,-10,-5,-1,-171,-184,-262
29.87299999999982,548,-472,8342,-12,-1,-8,-158,-186,-256
29.88499999999999,506,-458,8352,-13,3,-9,-168,-191,-264
29.906999999999925,582,-414,8366,-9,0,-6,-170,-180,-259
29.92899999999986,534,-434,8358,-7,-3,-6,-164,-182,-270
29.940999999999804,522,-480,8374,-10,3,-7,-169,-187,-262
29.962999999999965,586,-498,8296,-16,-3,-7,-157,-182,-265
29.97499999999991,526,-418,8326,-14,-6,-11,-173,-193,-268
29.996999999999844,566,-474,8338,-13,1,-10,-162,-172,-255
30.008999999999787,538,-478,8346,-11,1,-9,-169,-174,-260
30.03099999999995,510,-452,8324,-13,1,-5,-176,-189,-262
30.042999999999893,536,-492,8332,-14,0,-9,-170,-180,-266
30.064999999999827,472,-454,8362,-13,-6,-6,-184,-177,-262
30.08699999999999,590,-422,8320,-9,2,-13,-162,-184,-262
30.098999999999933,520,-476,8346,-10,-2,-7,-159,-187,-260
30.120999999999867,602,-468,8370,-12,4,-4,-171,-182,-265
30.13299999999981,572,-402,8342,-13,-5,-4,-170,-173,-268
30.154999999999973,570,-448,8332,-10,-2,-6,-165,-188,-249
30.166999999999916,548,-452,8360,-16,3,-10,-168,-175,-261
30.18899999999985,530,-480,8314,-11,-2,-12,-168,-186,-273
30.210999999999785,510,-418,8326,-15,-5,-8,-170,-178,-271
30.222999999999956,516,-416,8320,-12,1,-6,-161,-188,-268
30.24499999999989,518,-494,8348,-11,0,-3,-176,-179,-265
30.256999999999834,526,-470,8326,-13,3,-11,-171,-184,-262
30.278999999999996,566,-476,8342,-7,0,-12,-161,-188,-266
30.29099999999994,552,-438,8306,-10,2,-9,-168,-180,-264
30.312999999999874,572,-440,8344,-11,-5,-6,-168,-183,-256
30.324999999999818,540,-470,8390,-11,1,-7,-159,-174,-267
30.34699999999998,550,-456,8356,-8,-1,-10,-173,-180,-266
30.368999999999915,530,-446,8362,-10,0,-10,-165,-178,-256
30.380999999999858,562,-444,8328,-9,2,-8,-168,-183,-264
30.402999999999793,568,-484,8360,-13,-1,-7,-170,-186,-261
30.414999999999964,550,-510,8314,-14,2,-7,-170,-188,-252
30.436999999999898,544,-478,8322,-9,2,-6,-167,-187,-265
30.44899999999984,568,-460,8344,-10,-5,-6,-175,-183,-268
30.471000000000004,580,-430,8382,-20,-1,-13,-173,-183,-264
30.492999999999938,554,-438,8330,-9,-2,-9,-163,-191,-266
30.50499999999988,560,-448,8306,-13,2,-10,-171,-182,-262
30.526999999999816,574,-446,8356,-9,0,-10,-173,-186,-266
30.538999999999987,580,-442,8348,-7,-5,-9,-179,-177,-258
30.560999999999922,530,-428,8318,-12,0,-9,-169,-177,-262
30.572999999999865,582,-420,8344,-10,0,-3,-176,-177,-265
30.5949999999998,526,-428,8326,-10,-3,-8,-167,-174,-251
30.616999999999962,538,-470,8330,-8,3,-8,-169,-182,-262
30.628999999999905,546,-468,8368,-9,0,-12,-171,-189,-267
30.65099999999984,540,-440,8336,-11,-3,-12,-167,-189,-267
30.662999999999784,548,-494,8338,-11,8,-5,-171,-192,-255
30.684999999999945,572,-464,8362,-11,1,-8,-167,-177,-262
30.69699999999989,564,-410,8344,-10,-3,-6,-165,-180,-259
30.713997999999947,506,-530,8308,-13,6,-6,-175,-180,-264
30.735999999999876,558,-438,8352,-11,-4,-9,-167,-182,-260
30.75799999999981,592,-476,8346,-13,-3,-4,-170,-180,-264
30.769999999999982,546,-504,8332,-11,5,-4,-171,-177,-260
30.791999999999916,552,-430,8340,-16,3,-10,-165,-173,-261
30.80399999999986,560,-470,8334,-10,-1,-6,-180,-186,-259
30.825999999999794,568,-482,8342,-9,-8,-9,-163,-180,-264
30.837999999999965,586,-420,8386,-13,0,-11,-164,-177,-258
30.8599999999999,542,-478,8354,-10,0,-9,-175,-183,-256
30.871999999999844,580,-424,8336,-8,-9,-5,-167,-179,-265
30.894000000000005,540,-440,8352,-14,0,-10,-169,-187,-262
30.91599999999994,534,-460,8364,-13,3,-10,-169,-182,-255
30.927999999999884,504,-448,8346,-5,-5,-11,-179,-179,-262
30.949999999999818,570,-444,8404,-9,3,-9,-168,-175,-268
30.96199999999999,612,-438,8348,-11,4,-9,-161,-180,-259
30.983999999999924,586,-462,8346,-6,1,-8,-173,-173,-264
30.995999999999867,578,-480,8382,-14,3,-11,-165,-183,-261
31.0179999999998,570,-466,8340,-8,2,-5,-167,-187,-260
31.039999999999964,562,-428,8362,-5,-1,-9,-168,-183,-261
31.051999999999907,564,-484,8354,-16,2,-7,-171,-189,-262
31.07399999999984,544,-422,8282,-9,-1,-8,-173,-180,-268
31.085999999999785,534,-458,8304,-13,-6,-7,-161,-180,-261
31.107999999999947,610,-452,8382,-14,4,-9,-164,-177,-260
31.11999999999989,528,-484,8336,-6,-3,-10,-170,-203,-261
31.141999999999825,500,-450,8394,-11,-3,-4,-162,-182,-258
31.163999999999987,566,-462,8340,-8,-3,-7,-173,-178,-256
31.17599999999993,546,-478,8360,-13,1,-7,-168,-180,-266
31.197999999999865,578,-464,8340,-11,0,-7,-176,-182,-260
31.20999999999981,576,-434,8376,-14,-4,-13,-170,-173,-261
31.23199999999997,584,-468,8332,-14,3,-10,-171,-187,-262
31.243999999999915,528,-412,8380,-11,3,-6,-163,-183,-266
31.26599999999985,558,-454,8316,-10,-4,-6,-173,-183,-261
31.277999999999793,506,-402,8348,-15,0,-9,-167,-182,-262
31.299999999999955,552,-410,8346,-8,-3,-5,-164,-192,-267
31.32199999999989,534,-448,8362,-11,-7,-9,-162,-174,-260
31.333999999999833,540,-458,8400,-11,8,-6,-174,-179,-260
31.355999999999995,532,-410,8320,-12,3,-9,-163,-180,-252
31.367999999999938,530,-474,8324,-11,-8,-11,-170,-180,-254
31.389999999999873,546,-442,8396,-14,5,-9,-175,-188,-264
31.401999999999816,514,-448,8324,-8,2,-6,-162,-184,-255
31.423999999999978,590,-526,8310,-7,-7,-6,-176,-187,-267
31.445999999999913,566,-450,8338,-15,7,-4,-157,-182,-260
31.457999999999856,558,-446,8388,-9,-1,-6,-176,-182,-272
31.47999999999979,558,-418,8302,-11,-7,-9,-164,-182,-267
31.491999999999962,550,-428,8334,-15,4,-2,-170,-180,-266
31.513999999999896,564,-484,8326,-6,0,-4,-169,-187,-260
31.52599999999984,528,-478,8386,-9,2,-9,-169,-182,-258
31.548000000000002,560,-492,8356,-8,6,-9,-171,-177,-262
31.569999999999936,510,-428,8330,-5,-6,-8,-174,-182,-258
31.58199999999988,546,-492,8356,-11,2,-3,-169,-184,-265
31.603999999999814,590,-470,8378,-13,0,-11,-163,-180,-266
31.615999999999985,556,-454,8360,-11,-7,-7,-165,-178,-266
31.63799999999992,520,-452,8376,-16,3,-10,-164,-182,-262
31.649999999999864,574,-402,8310,-8,-6,-9,-165,-188,-252
31.671999999999798,526,-438,8370,-8,2,-4,-167,-184,-262
31.68399999999997,530,-458,8346,-15,5,-6,-168,-186,-259
31.705999999999904,572,-466,8332,-13,-4,-5,-169,-177,-270
31.727999999999838,542,-482,8332,-15,3,-11,-164,-177,-258
31.74000000000001,534,-420,8374,-12,0,-6,-161,-173,-261
31.761999999999944,524,-430,8374,-9,-5,-14,-170,-173,-261
31.773999999999887,548,-436,8366,-14,8,-8,-176,-182,-262
31.79599999999982,554,-456,8362,-8,-5,-8,-169,-172,-260
31.807999999999993,536,-430,8358,-13,-5,-7,-185,-183,-266
31.829999999999927,532,-460,8362,-13,4,-3,-179,-174,-255
31.85199999999986,542,-466,8362,-15,-3,-10,-168,-186,-261
31.863999999999805,536,-422,8326,-10,-3,-7,-163,-175,-261
31.885999999999967,548,-478,8408,-12,-1,-9,-168,-178,-264
31.89799999999991,580,-482,8346,-7,-5,-4,-158,-178,-256
31.919999999999845,536,-442,8338,-13,2,-3,-161,-183,-256
31.93199999999979,552,-440,8348,-8,4,-9,-173,-183,-266
31.95399999999995,556,-494,8332,-11,-5,-8,-174,-184,-272
31.96628499999997,514,-478,8294,-10,6,-7,-167,-184,-262
31.98799999999983,600,-448,8340,-11,0,-6,-171,-187,-260
32.00999999999999,532,-422,8312,-9,-5,-8,-169,-184,-272
32.021999999999935,524,-432,8322,-14,3,-7,-170,-186,-264
32.04399999999987,576,-474,8344,-11,0,-8,-163,-178,-266
32.05599999999981,550,-424,8302,-6,-8,-8,-168,-183,-259
32.077999999999975,548,-428,8338,-9,-1,-5,-173,-186,-254
32.08999999999992,546,-458,8370,-12,-3,-6,-167,-187,-265
32.11199999999985,514,-500,8344,-9,-9,-4,-163,-178,-259
32.13399999999979,558,-486,8322,-14,3,-9,-162,-182,-258
32.14599999999996,582,-424,8350,-10,4,-9,-171,-184,-253
32.16799999999989,590,-436,8384,-7,-5,-7,-165,-183,-266
32.179999999999836,524,-446,8356,-13,2,-9,-163,-178,-259
32.202,544,-506,8344,-11,-1,-9,-164,-177,-258
32.21399999999994,550,-478,8318,-9,-3,-3,-162,-179,-274
32.235999999999876,590,-448,8358,-17,2,-7,-163,-183,-261
32.25799999999981,564,-452,8372,-13,-10,-9,-170,-186,-266
32.26999999999998,586,-454,8340,-10,-1,-9,-164,-189,-260
32.291999999999916,538,-386,8324,-10,5,-8,-169,-192,-270
32.30399999999986,524,-452,8348,-14,-7,-3,-161,-191,-261
32.325999999999794,556,-464,8346,-10,6,-3,-165,-178,-256
32.337999999999965,522,-422,8306,-12,0,-8,-167,-192,-260
32.3599999999999,526,-432,8352,-6,-8,-7,-178,-186,-268
32.371999999999844,544,-478,8336,-12,1,-5,-167,-177,-265
32.394000000000005,548,-458,8352,-12,-4,-8,-175,-180,-261
32.41599999999994,552,-498,8332,-9,-3,-6,-161,-180,-268
32.427999999999884,538,-444,8350,-15,2,-9,-170,-178,-264
32.44999999999982,566,-460,8334,-11,-1,-9,-167,-182,-260
32.46199999999999,522,-418,8304,-12,1,-5,-163,-186,-259
32.483999999999924,540,-466,8372,-7,0,-9,-173,-188,-264
32.49599999999987,544,-434,8318,-12,4,-5,-173,-180,-264
32.5179999999998,550,-432,8356,-10,-2,-4,-173,-180,-264
32.539999999999964,534,-434,8372,-11,-4,-8,-175,-178,-256
32.55199999999991,568,-432,8382,-11,5,-1,-164,-169,-260
32.57399999999984,584,-446,8344,-12,-3,-8,-169,-182,-267
32.585999999999785,516,-452,8384,-12,0,-6,-169,-184,-265
32.60799999999995,532,-438,8338,-11,0,-3,-171,-179,-255
32.61999999999989,562,-460,8368,-7,0,-8,-167,-189,-255
32.641999999999825,588,-436,8360,-9,-4,-7,-165,-193,-261
32.66399999999999,512,-442,8364,-13,7,-6,-165,-183,-268
32.67599999999993,518,-446,8348,-9,-8,-11,-167,-174,-265
32.697999999999865,584,-484,8338,-5,-1,-6,-164,-184,-251
32.71499799999992,558,-448,8368,-11,1,-10,-167,-184,-265
32.72699999999986,592,-456,8358,-11,-3,-7,-167,-187,-265
32.748999999999796,556,-442,8392,-14,2,-8,-164,-184,-260
32.76099999999997,544,-502,8378,-9,0,-6,-169,-184,-262
32.7829999999999,532,-482,8354,-12,-4,-8,-170,-191,-261
32.804999999999836,564,-468,8362,-8,6,-8,-164,-179,-265
32.81700000000001,558,-444,8336,-8,-1,-7,-170,-180,-264
32.83899999999994,594,-414,8330,-6,-5,-11,-168,-180,-261
32.850999999999885,558,-464,8350,-15,1,-4,-161,-175,-261
32.87299999999982,552,-410,8308,-7,3,-7,-169,-174,-258
32.88499999999999,538,-462,8314,-11,-4,-8,-171,-179,-260
32.906999999999925,536,-432,8352,-7,2,-8,-174,-192,-265
32.91899999999987,546,-452,8352,-7,0,-4,-164,-187,-258
32.9409999999998,504,-436,8354,-10,-6,-6,-162,-174,-255
32.962999999999965,584,-476,8350,-12,3,-6,-170,-180,-256
32.97499999999991,574,-468,8314,-10,-2,-8,-170,-175,-278
32.996999999999844,602,-402,8352,-12,1,-12,-178,-178,-264
33.00899999999979,550,-464,8392,-12,4,-8,-169,-184,-255
33.03099999999995,494,-462,8306,-7,-3,-9,-169,-174,-258
33.04299999999989,590,-460,8324,-11,3,-8,-159,-179,-255
33.06499999999983,556,-458,8376,-11,-1,-7,-163,-186,-261
33.08699999999999,536,-476,8346,-11,-11,-9,-167,-187,-262
33.09899999999993,528,-486,8304,-12,-2,-9,-165,-186,-266
33.12099999999987,524,-468,8348,-14,-2,-11,-168,-193,-264
33.13299999999981,564,-432,8308,-9,-1,-8,-163,-191,-261
33.15499999999997,562,-444,8364,-12,1,-10,-168,-175,-268
33.166999999999916,552,-470,8316,-8,-7,-8,-178,-183,-256
33.18899999999985,528,-436,8350,-11,2,-6,-170,-173,-261
33.210999999999785,524,-412,8300,-5,-3,-7,-165,-178,-266
33.222999999999956,526,-440,8348,-9,-2,-4,-175,-186,-254
33.24499999999989,556,-470,8350,-12,0,-7,-168,-175,-264
33.256999999999834,556,-422,8340,-7,2,-7,-167,-182,-265
33.278999999999996,522,-438,8342,-14,-3,-9,-164,-184,-267
33.29099999999994,564,-426,8336,-13,0,-8,-159,-179,-258
33.312999999999874,554,-410,8330,-11,4,-10,-171,-172,-258
33.32499999999982,558,-474,8304,-6,-2,-8,-179,-172,-260
33.34699999999998,584,-458,8326,-11,-2,-10,-158,-188,-264
33.368999999999915,600,-470,8328,-15,4,-9,-164,-174,-260
33.38099999999986,544,-458,8322,-11,-7,-10,-173,-180,-261
33.40299999999979,486,-420,8334,-11,3,-5,-169,-179,-267
33.414999999999964,556,-460,8332,-15,-1,-5,-171,-182,-267
33.4369999999999,536,-472,8374,-11,-4,-8,-165,-186,-252
33.44899999999984,530,-508,8364,-6,6,-8,-178,-186,-261
33.471000000000004,568,-468,8320,-13,-1,-5,-164,-179,-270
33.49299999999994,514,-462,8364,-5,-1,-6,-170,-183,-266
33.50499999999988,548,-456,8318,-14,1,-5,-165,-178,-266
33.526999999999816,520,-420,8302,-4,-5,-8,-170,-186,-264
33.53899999999999,482,-492,8308,-10,1,-11,-169,-177,-272
33.56099999999992,522,-460,8354,-12,2,-7,-174,-187,-265
33.572999999999865,542,-430,8330,-10,0,-7,-168,-183,-261
33.5949999999998,552,-530,8346,-12,-6,-5,-170,-175,-254
33.61699999999996,554,-418,8304,-13,0,-5,-170,-175,-261
33.628999999999905,602,-448,8344,-12,-3,-3,-165,-178,-259
33.65099999999984,572,-460,8344,-11,-2,-4,-163,-180,-266
33.66299999999978,556,-454,8316,-11,1,-11,-173,-186,-266
33.684999999999945,518,-482,8368,-13,-4,-8,-169,-189,-255
33.69699999999989,540,-484,8314,-9,7,-8,-165,-180,-254
33.718999999999824,546,-438,8280,-9,-5,-6,-173,-178,-254
33.730999999999995,550,-448,8328,-8,0,-10,-173,-183,-254
33.75299999999993,520,-436,8350,-16,-2,-6,-170,-196,-261
33.774999999999864,540,-450,8296,-6,-1,-7,-169,-177,-270
33.78699999999981,494,-464,8354,-10,-3,-6,-170,-178,-254
33.80899999999997,556,-498,8352,-10,2,-9,-164,-184,-267
33.82099999999991,526,-478,8314,-9,1,-5,-170,-180,-259
33.84299999999985,504,-428,8326,-13,-1,-10,-164,-174,-270
33.85499999999979,526,-490,8390,-8,-8,-7,-164,-184,-258
33.87699999999995,546,-444,8308,-12,4,-9,-171,-182,-265
33.89899999999989,546,-486,8332,-11,-2,-9,-165,-175,-261
33.91099999999983,534,-514,8332,-7,-4,-9,-164,-197,-265
33.93299999999999,544,-476,8368,-14,5,-9,-169,-182,-265
33.944999999999936,494,-444,8358,-12,-8,-8,-173,-173,-256
33.96699999999987,536,-468,8340,-14,-1,-10,-168,-186,-261
33.978999999999814,538,-468,8374,-6,5,-11,-171,-182,-260
34.000999999999976,564,-474,8296,-8,-7,-7,-162,-192,-258
34.01299999999992,562,-456,8332,-12,0,-9,-168,-180,-256
34.034999999999854,516,-482,8318,-12,-1,-9,-169,-182,-262
34.05699999999979,522,-478,8354,-10,-3,-6,-173,-180,-266
34.06899999999996,534,-466,8356,-13,0,-6,-161,-178,-264
34.090999999999894,522,-430,8300,-12,6,-6,-169,-187,-262
34.10299999999984,510,-424,8316,-11,-2,-12,-168,-165,-264
34.125,592,-446,8356,-8,-2,-9,-169,-172,-260
34.136999999999944,508,-456,8326,-7,2,-9,-161,-191,-259
34.15899999999988,574,-476,8356,-9,1,-8,-164,-179,-253
34.18099999999981,560,-442,8350,-12,-4,-8,-164,-184,-262
34.192999999999984,516,-506,8362,-7,-5,-7,-174,-192,-262
34.21499999999992,558,-494,8302,-16,2,-10,-170,-180,-268
34.22699999999986,536,-430,8318,-6,-4,-4,-171,-174,-262
34.248999999999796,562,-446,8330,-9,-2,-10,-167,-174,-258
34.26099999999997,542,-452,8330,-13,3,-9,-167,-184,-258
34.2829999999999,512,-448,8308,-8,-1,-5,-169,-172,-258
34.304999999999836,550,-434,8332,-9,4,-8,-158,-186,-264
34.31700000000001,558,-468,8300,-9,1,-9,-163,-178,-256
34.33899999999994,560,-474,8330,-13,3,-5,-164,-184,-270
34.350999999999885,546,-484,8334,-13,1,-12,-173,-178,-256
34.37299999999982,528,-420,8304,-9,-1,-7,-163,-188,-259
34.38499999999999,532,-464,8346,-11,3,-8,-155,-182,-262
34.406999999999925,580,-468,8348,-11,-3,-10,-173,-183,-256
34.41899999999987,574,-470,8364,-9,0,-7,-178,-175,-266
34.4409999999998,508,-462,8358,-6,-3,-7,-163,-183,-256
34.462999999999965,610,-444,8316,-5,-3,-7,-167,-189,-265
34.47499999999991,548,-440,8354,-16,2,-8,-168,-178,-261
34.496999999999844,556,-534,8336,-10,-1,-8,-162,-182,-258
34.50899999999979,550,-418,8326,-11,-5,-12,-167,-177,-265
34.53099999999995,562,-466,8352,-15,-3,-11,-171,-187,-255
34.54299999999989,548,-506,8318,-12,-3,-11,-163,-188,-264
34.56499999999983,496,-468,8356,-9,-1,-10,-170,-180,-261
34.58699999999999,556,-422,8352,-9,-4,-6,-175,-193,-259
34.59899999999993,572,-448,8352,-11,-6,-6,-167,-182,-255
34.62099999999987,560,-508,8320,-12,3,-6,-167,-182,-265
34.63299999999981,570,-450,8308,-14,0,-8,-170,-186,-264
34.65499999999997,508,-472,8308,-8,-7,-8,-167,-187,-255
34.666999999999916,606,-496,8334,-11,-1,-3,-164,-182,-270
34.68899999999985,544,-480,8312,-9,0,-10,-164,-187,-265
34.7159979999999,550,-456,8346,-10,-2,-7,-178,-183,-256
34.72799999999984,530,-456,8322,-9,2,-8,-165,-180,-264
34.74000000000001,574,-478,8290,-11,-4,-7,-159,-182,-262
34.761999999999944,528,-476,8324,-11,-1,-9,-174,-179,-262
34.77399999999989,508,-488,8336,-9,-2,-7,-168,-173,-259
34.79599999999982,560,-490,8334,-12,0,-5,-169,-184,-262
34.80799999999999,532,-440,8352,-13,1,-9,-170,-186,-264
34.82999999999993,526,-460,8338,-8,-4,-7,-173,-170,-264
34.85199999999986,552,-478,8330,-9,-3,-8,-174,-177,-270
34.863999999999805,524,-482,8412,-13,3,-9,-175,-183,-259
34.88599999999997,544,-474,8362,-9,-3,-4,-167,-177,-262
34.89799999999991,554,-496,8316,-11,-1,-9,-159,-192,-262
34.919999999999845,618,-452,8356,-12,0,-8,-169,-174,-260
34.93199999999979,556,-436,8330,-7,-1,-7,-157,-187,-262
34.95399999999995,580,-456,8316,-13,1,-11,-170,-183,-264
34.965999999999894,528,-438,8368,-13,3,-6,-174,-189,-270
34.98799999999983,520,-460,8342,-9,-2,-10,-159,-172,-262
35.00999999999999,570,-414,8344,-12,-3,-6,-165,-186,-259
35.021999999999935,566,-478,8304,-11,0,-9,-173,-175,-254
35.04399999999987,554,-432,8320,-12,-1,-6,-168,-186,-266
35.05599999999981,548,-472,8328,-8,-3,-2,-164,-179,-258
35.077999999999975,566,-474,8348,-11,1,-9,-159,-177,-258
35.08999999999992,556,-482,8270,-11,-1,-8,-168,-175,-266
35.11199999999985,532,-468,8314,-12,0,-12,-170,-191,-261
35.13399999999979,546,-450,8350,-14,0,-8,-173,-183,-256
35.14599999999996,552,-486,8360,-10,1,-6,-163,-193,-268
35.16799999999989,554,-508,8342,-11,1,-8,-168,-183,-259
35.179999999999836,526,-434,8366,-9,-3,-9,-174,-177,-265
35.202,602,-506,8370,-14,-1,-9,-174,-177,-262
35.21399999999994,544,-432,8376,-12,-5,-7,-174,-184,-253
35.235999999999876,564,-452,8346,-8,5,-7,-171,-197,-262
35.25799999999981,502,-450,8322,-13,4,-10,-165,-191,-256
35.26999999999998,538,-476,8318,-6,0,-6,-182,-196,-266
35.291999999999916,496,-474,8392,-12,3,-6,-178,-183,-268
35.30399999999986,600,-472,8312,-6,-6,-8,-174,-167,-260
35.325999999999794,558,-482,8336,-10,-3,-11,-167,-187,-262
35.337999999999965,570,-494,8318,-13,-1,-6,-169,-174,-267
35.3599999999999,554,-418,8288,-12,3,-6,-158,-180,-259
35.371999999999844,560,-480,8342,-8,0,-8,-176,-174,-255
35.394000000000005,552,-478,8370,-9,-2,-10,-167,-189,-260
35.41599999999994,544,-430,8290,-10,1,-8,-167,-182,-255
35.427999999999884,540,-526,8330,-13,0,-4,-167,-184,-262
35.44999999999982,556,-446,8364,-12,2,-11,-174,-182,-262
35.46199999999999,564,-466,8314,-11,-4,-5,-168,-183,-261
35.483999999999924,538,-446,8320,-16,3,-12,-159,-177,-260
35.49599999999987,552,-414,8342,-14,-1,-6,-165,-175,-254
35.5179999999998,536,-434,8344,-9,0,-8,-167,-184,-260
35.539999999999964,494,-448,8352,-9,2,-7,-178,-186,-268
35.55199999999991,584,-458,8336,-7,2,-11,-167,-182,-258
35.57399999999984,550,-448,8316,-9,0,-3,-173,-188,-261
35.585999999999785,574,-472,8342,-8,5,-8,-161,-183,-266
35.60799999999995,544,-440,8406,-12,-5,-9,-168,-186,-249
35.61999999999989,522,-474,8332,-9,1,-6,-167,-169,-265
35.641999999999825,594,-416,8362,-10,0,-5,-171,-177,-251
35.653999999999996,570,-468,8352,-11,-2,-7,-170,-188,-268
35.67599999999993,556,-482,8368,-6,-4,-9,-173,-180,-266
35.697999999999865,566,-480,8358,-14,-1,-7,-179,-179,-262
35.70999999999981,546,-402,8324,-11,-5,-13,-170,-188,-264
35.73199999999997,516,-502,8386,-14,-2,-7,-163,-183,-261
35.743999999999915,552,-462,8352,-14,3,-6,-164,-182,-262
35.76599999999985,552,-478,8276,-10,-4,-7,-171,-184,-265
35.77799999999979,570,-466,8358,-14,3,-9,-161,-183,-266
35.799999999999955,520,-434,8334,-9,0,-9,-168,-183,-266
35.82199999999989,518,-448,8314,-9,-5,-13,-174,-182,-260
35.83399999999983,524,-450,8332,-12,2,-11,-170,-178,-268
35.855999999999995,564,-442,8364,-12,0,-8,-162,-179,-265
35.86799999999994,520,-474,8304,-12,-2,-5,-169,-192,-262
35.88999999999987,560,-426,8316,-17,2,-8,-173,-188,-264
35.901999999999816,512,-430,8350,-13,0,-11,-168,-183,-261
35.92399999999998,544,-414,8352,-11,-4,-7,-165,-186,-259
35.94599999999991,538,-498,8336,-12,5,-7,-171,-184,-267
35.957999999999856,520,-496,8336,-9,-6,-8,-171,-179,-265
35.97999999999979,572,-418,8372,-8,1,-6,-169,-179,-262
35.99199999999996,514,-474,8366,-19,6,-14,-161,-173,-268
36.013999999999896,546,-472,8334,-6,-8,-11,-167,-184,-255
36.02599999999984,578,-408,8342,-12,2,-8,-173,-180,-266
36.048,544,-460,8376,-12,0,-8,-168,-173,-259
36.059999999999945,572,-428,8322,-11,-8,-4,-161,-173,-266
36.08199999999988,556,-446,8358,-3,1,-6,-169,-189,-262
36.103999999999814,580,-432,8332,-14,1,-5,-162,-184,-262
36.115999999999985,566,-448,8368,-8,-6,-9,-162,-177,-265
36.13799999999992,572,-464,8332,-14,1,-10,-169,-189,-267
36.149999999999864,534,-428,8352,-8,0,-8,-156,-186,-254
36.1719999999998,548,-438,8314,-10,-7,-11,-169,-179,-260
36.18399999999997,510,-454,8374,-13,7,-3,-173,-175,-268
36.205999999999904,576,-446,8400,-9,-2,-2,-165,-188,-259
36.22799999999984,552,-428,8316,-14,-1,-8,-167,-179,-258
36.24000000000001,516,-466,8354,-13,7,-10,-176,-187,-267
36.261999999999944,584,-476,8342,-11,-6,-8,-173,-173,-266
36.27399999999989,550,-434,8290,-9,3,-4,-162,-184,-260
36.29599999999982,504,-474,8322,-12,2,-7,-173,-186,-266
36.30799999999999,488,-452,8362,-10,-4,-7,-163,-183,-264
36.32999999999993,502,-420,8354,-12,2,-7,-169,-179,-262
36.35199999999986,532,-414,8328,-7,3,-7,-155,-187,-260
36.363999999999805,556,-450,8326,-13,-1,-6,-164,-182,-262
36.38599999999997,554,-478,8312,-13,-1,-10,-169,-194,-267
36.39799999999991,510,-454,8348,-15,-4,-8,-170,-186,-259
36.419999999999845,558,-394,8348,-10,-4,-6,-174,-177,-255
36.43199999999979,592,-438,8330,-14,3,-4,-175,-196,-266
36.45399999999995,554,-428,8334,-6,-4,-8,-164,-189,-260
36.465999999999894,536,-466,8348,-13,3,-13,-164,-177,-260
36.48799999999983,552,-408,8370,-11,0,-10,-169,-177,-262
36.50999999999999,518,-456,8326,-6,-3,-9,-159,-187,-260
36.521999999999935,510,-498,8348,-18,-3,-5,-164,-179,-262
36.54399999999987,556,-462,8334,-12,3,-13,-167,-179,-260
36.55599999999981,542,-470,8376,-6,-3,-5,-169,-192,-255
