Tiempo,AccX,AccY,AccZ,GyrX,GyrY,GyrZ,MagX,MagY,MagZ
0.0,-440.91797,-700.19531,605.46875,-0.73171,2.31707,0.24390,10.80,-92.25,8.85
0.002686000000039712,-442.87109,-711.91406,593.26172,-0.97561,1.46341,0.97561,13.35,-92.25,9.90
0.005249000000048909,-447.75391,-705.56641,598.14453,-0.85366,-0.85366,2.31707,13.35,-92.25,9.90
0.007935000000088621,-447.26562,-705.07812,593.26172,-0.85366,-0.36585,-2.86585,13.35,-92.25,9.90
0.010620000000017171,-460.93750,-694.33594,592.28516,-0.36585,2.50000,0.67073,13.35,-92.25,9.90
0.01324499999998352,-459.47266,-699.21875,600.58594,-2.01220,1.76829,0.79268,13.35,-92.25,9.90
0.01599199999998291,-458.98437,-704.58984,597.16797,-0.97561,0.54878,-0.67073,13.35,-92.25,9.90
0.018737999999984822,-455.56641,-688.96484,592.77344,-0.54878,1.52439,2.13415,13.35,-92.25,9.90
0.021424000000024535,-458.00781,-703.12500,596.67969,-0.85366,0.30488,-0.91463,13.35,-92.25,9.90
0.02410900000006677,-457.51953,-703.61328,596.67969,-2.68293,-0.12195,-3.96341,13.35,-92.25,9.90
0.02673400000003312,-460.44922,-691.89453,596.19141,0.30488,0.85366,0.67073,13.35,-92.25,9.90
0.029480000000035034,-454.58984,-707.51953,611.81641,1.09756,-0.79268,-2.50000,13.35,-92.25,9.90
0.03210500000000138,-455.56641,-703.61328,604.00391,0.48780,1.21951,0.91463,13.35,-92.25,9.90
0.034851000000003296,-443.84766,-695.31250,604.49219,-0.12195,0.24390,-2.01220,11.40,-91.95,9.45
0.03753700000004301,-448.73047,-695.80078,600.09766,-1.40244,1.15854,0.24390,11.40,-91.95,9.45
0.04022300000008272,-442.87109,-710.44922,598.63281,0.00000,0.85366,-1.70732,11.40,-91.95,9.45
0.04290800000001127,-448.24219,-707.03125,609.37500,0.00000,-0.42683,2.68293,12.30,-92.55,8.10
0.04565500000001066,-440.42969,-691.40625,598.63281,0.12195,-0.91463,-3.96341,12.30,-92.55,8.10
0.04827899999997953,-448.24219,-693.35937,598.63281,-0.48780,-0.18293,0.24390,12.30,-92.55,8.10
0.050965000000019245,-447.75391,-686.03516,604.49219,-1.58537,0.42683,-0.18293,12.30,-92.55,8.10
0.05371100000002116,-445.80078,-710.44922,609.86328,-1.82927,0.30488,-0.67073,12.30,-91.80,8.85
0.05645800000002055,-428.71094,-692.87109,611.81641,-1.82927,-0.73171,-0.54878,12.30,-91.80,8.85
0.05920400000002246,-455.56641,-710.44922,610.35156,-0.91463,-0.97561,-2.43902,12.30,-91.80,8.85
0.06189000000006217,-438.96484,-714.84375,602.53906,-2.31707,0.91463,-0.97561,11.70,-92.40,9.00
0.06463700000006156,-454.10156,-709.96094,613.76953,-1.34146,-1.70732,-0.79268,11.70,-92.40,9.00
0.06744400000002315,-422.36328,-705.07812,614.74609,0.12195,-2.13415,-0.12195,11.70,-92.40,9.00
0.07013000000006286,-443.35937,-707.03125,603.02734,-2.37805,-2.25610,-0.54878,11.70,-92.40,9.00
0.07287600000006478,-437.01172,-702.14844,602.53906,0.36585,1.34146,-1.28049,10.50,-92.55,7.80
0.07562300000006417,-437.50000,-701.66016,606.93359,-4.32927,-3.96341,1.34146,10.50,-92.55,7.80
0.07830799999999272,-450.19531,-701.66016,595.21484,-1.95122,0.12195,-1.03659,10.50,-92.55,7.80
0.08099400000003243,-454.58984,-689.45312,628.90625,-0.73171,-0.67073,1.15854,10.65,-91.95,7.65
0.08374100000003182,-453.61328,-718.75000,610.35156,-0.18293,-2.86585,-3.71951,10.65,-91.95,7.65
0.08648700000003373,-452.14844,-708.98437,614.74609,-2.07317,1.34146,-1.15854,10.65,-91.95,7.65
0.08911200000000008,-434.57031,-698.24219,610.83984,-0.73171,-0.36585,-1.09756,10.65,-91.95,7.65
0.091858000000002,-433.10547,-706.54297,608.88672,-0.42683,-0.67073,-0.60976,11.40,-90.90,7.35
0.09460500000000138,-447.75391,-708.98437,621.09375,-0.12195,-1.70732,0.12195,11.40,-90.90,7.35
0.09722900000008394,-436.03516,-698.24219,599.60937,-0.73171,0.24390,1.40244,11.40,-90.90,7.35
0.09991500000000997,-432.12891,-697.26562,618.16406,-1.95122,-0.42683,-1.28049,11.40,-90.90,7.35
0.10266100000001188,-441.40625,-705.07812,600.09766,1.46341,-0.36585,1.46341,10.50,-91.05,7.80
0.10540800000001127,-451.17187,-704.10156,605.46875,-1.34146,-0.97561,-0.85366,10.50,-91.05,7.80
0.10815500000001066,-454.10156,-708.49609,600.58594,-3.17073,0.24390,-0.97561,10.50,-91.05,7.80
0.11090100000001257,-447.75391,-699.70703,608.88672,1.40244,-3.84146,0.67073,10.50,-91.05,7.80
0.11364800000001196,-449.21875,-687.01172,598.14453,-1.34146,0.97561,-2.68293,10.50,-91.05,7.80
0.11639400000001388,-428.71094,-701.17187,607.91016,-0.12195,-3.53659,-1.15854,10.50,-91.05,7.80
0.11914100000001326,-436.52344,-691.89453,610.35156,-2.98780,-0.42683,-0.97561,10.50,-91.05,7.80
0.12188800000001265,-434.57031,-695.31250,609.37500,1.21951,-2.56098,-3.10976,10.50,-91.05,7.80
0.12463400000001457,-432.12891,-687.50000,606.44531,-2.43902,-1.52439,-1.89024,10.50,-91.05,7.80
0.12738100000001396,-447.26562,-692.87109,600.58594,-2.37805,0.18293,-2.74390,10.50,-91.05,7.80
0.13012700000001587,-442.87109,-688.96484,598.63281,-2.07317,-2.01220,-2.19512,10.50,-91.05,7.80
0.13281300000005558,-447.75391,-705.07812,599.12109,-2.50000,-1.46341,-1.46341,11.85,-91.80,8.55
0.13562000000001717,-451.17187,-699.21875,603.51562,-0.97561,1.70732,0.67073,11.85,-91.80,8.55
0.13830600000005688,-434.08203,-705.07812,595.21484,0.24390,-3.23171,-1.40244,11.85,-91.80,8.55
0.14105300000005627,-443.35937,-696.77734,608.88672,-1.76829,-2.13415,-1.52439,11.85,-92.25,7.50
0.14373799999998482,-455.07812,-701.17187,609.86328,1.03659,-2.50000,-1.21951,11.85,-92.25,7.50
0.1464849999999842,-443.35937,-719.23828,609.86328,-0.48780,1.21951,0.48780,11.85,-92.25,7.50
0.14917000000002645,-425.29297,-709.47266,615.72266,-2.13415,2.31707,-3.35366,11.85,-92.25,7.50
0.15191700000002584,-437.50000,-694.82422,624.02344,-0.73171,-4.20732,1.95122,11.70,-92.40,9.00
0.15466300000002775,-437.50000,-708.49609,618.16406,-2.37805,-1.21951,-0.36585,11.70,-92.40,9.00
0.15741000000002714,-434.57031,-715.82031,609.86328,0.48780,-2.07317,-0.48780,11.70,-92.40,9.00
0.16015700000002653,-439.45312,-714.84375,614.74609,-0.67073,-2.13415,-0.60976,11.55,-91.80,8.55
0.16290300000002844,-445.31250,-711.42578,606.44531,-1.58537,0.42683,-2.01220,11.55,-91.80,8.55
0.16565000000002783,-441.89453,-708.00781,606.93359,0.54878,0.42683,0.12195,11.55,-91.80,8.55
0.16833500000007007,-442.87109,-706.54297,608.39844,-0.06098,1.52439,-2.43902,11.55,-91.80,8.55
0.17108200000006946,-437.98828,-712.40234,608.39844,0.60976,-0.60976,0.54878,11.40,-93.45,7.35
0.17382800000007137,-433.59375,-701.66016,617.67578,2.50000,1.28049,-0.18293,11.40,-93.45,7.35
0.1765139999999974,-424.31641,-702.63672,615.23437,-0.42683,-0.97561,-0.97561,11.40,-93.45,7.35
0.1792000000000371,-429.19922,-708.49609,619.14062,-0.54878,-1.28049,-0.60976,11.25,-91.80,7.50
0.18194600000003902,-435.54687,-708.00781,608.88672,-0.30488,0.67073,2.01220,11.25,-91.80,7.50
0.1846930000000384,-437.98828,-707.03125,617.67578,-0.48780,0.48780,-1.64634,11.25,-91.80,7.50
0.18737800000008065,-435.54687,-706.54297,613.76953,0.06098,-0.36585,0.18293,11.25,-91.80,7.50
0.19006400000000667,-444.82422,-696.77734,615.72266,-0.79268,1.46341,-0.48780,11.40,-90.45,9.00
0.19281000000000859,-448.73047,-694.82422,606.93359,-1.52439,0.67073,0.42683,11.40,-90.45,9.00
0.1954960000000483,-438.96484,-698.73047,603.02734,0.06098,1.64634,0.67073,11.40,-90.45,9.00
0.198182000000088,-433.59375,-698.24219,606.44531,0.36585,-1.70732,-1.28049,10.95,-90.45,9.00
0.20086700000001656,-448.73047,-687.01172,610.83984,0.54878,0.60976,1.40244,10.95,-90.15,9.00
0.20361400000001595,-446.28906,-707.51953,612.30469,-0.67073,-1.58537,-2.07317,10.95,-90.15,9.00
0.20623799999998482,-434.08203,-704.58984,609.86328,-2.13415,-1.64634,0.79268,10.95,-90.15,9.00
0.20904600000005757,-437.98828,-693.35937,601.07422,0.06098,-1.40244,-0.12195,10.95,-90.15,9.00
0.21173099999998612,-440.91797,-714.35547,595.70312,0.42683,-2.19512,0.36585,10.95,-90.15,9.00
0.21441700000002584,-444.33594,-700.68359,615.72266,0.06098,0.48780,-0.24390,10.95,-90.15,9.00
0.21710200000006807,-444.82422,-703.12500,614.74609,-1.28049,-0.36585,-0.48780,10.95,-90.15,9.00
0.21984900000006746,-442.38281,-697.75391,608.39844,-0.24390,-1.52439,0.12195,10.95,-90.15,9.00
0.2225349999999935,-443.35937,-699.21875,596.19141,0.48780,-0.48780,-1.76829,10.95,-90.15,9.00
0.22522000000003572,-442.87109,-703.61328,596.67969,-0.42683,0.97561,1.58537,10.95,-90.15,9.00
0.22790600000007544,-449.70703,-690.91797,598.63281,-3.35366,-1.52439,-0.60976,10.95,-90.15,9.00
0.23065200000007735,-446.28906,-700.19531,604.00391,-0.67073,-1.28049,-3.23171,10.65,-91.95,8.40
0.23339900000007674,-437.98828,-694.33594,600.58594,-0.73171,1.89024,0.73171,10.65,-91.95,8.40
0.2360840000000053,-438.96484,-700.68359,616.21094,-0.12195,-1.46341,-2.25610,10.65,-91.95,8.40
0.238770000000045,-439.94141,-694.82422,599.60937,-1.95122,-1.09756,-0.79268,11.40,-91.65,8.40
0.2415770000000066,-447.26562,-696.77734,614.25781,-2.80488,0.91463,-0.97561,11.40,-91.65,8.40
0.2442630000000463,-449.21875,-701.66016,604.00391,0.06098,-1.28049,-0.54878,11.40,-91.65,8.40
0.24694900000008602,-441.40625,-703.61328,611.81641,0.73171,-1.46341,-1.03659,11.40,-91.65,8.40
0.24963400000001457,-431.15234,-706.54297,595.70312,-0.60976,-4.39024,-0.12195,12.15,-91.65,7.65
0.2524420000000873,-437.98828,-699.21875,604.49219,-1.21951,-0.24390,-2.25610,12.15,-91.65,7.65
0.25512700000001587,-450.68359,-692.87109,599.60937,-1.21951,-2.80488,1.03659,12.15,-91.65,7.65
0.2578130000000556,-437.50000,-703.61328,608.39844,-0.42683,0.06098,-2.80488,12.60,-92.55,7.80
0.2605590000000575,-435.54687,-706.54297,617.67578,-1.28049,-1.21951,0.06098,12.60,-92.55,7.80
0.26318400000002384,-444.33594,-713.37891,599.12109,-2.37805,-0.12195,-2.62195,12.60,-92.55,7.80
0.26593100000002323,-435.54687,-711.42578,622.55859,-0.91463,-0.48780,-2.98780,12.60,-92.55,7.80
0.2687379999999848,-433.59375,-703.12500,604.98047,-2.50000,-1.52439,-0.85366,10.95,-92.40,7.35
0.27142400000002453,-435.54687,-711.91406,609.86328,-1.28049,-0.97561,-0.06098,10.95,-92.40,7.35
0.27832100000000537,-432.12891,-707.51953,608.39844,0.54878,-4.20732,-0.60976,12.75,-90.15,7.65
0.2810060000000476,-431.15234,-692.87109,603.51562,0.91463,-0.06098,-1.21951,12.75,-90.15,7.65
0.28363100000001396,-449.21875,-696.77734,604.49219,-2.19512,-0.42683,-3.04878,12.75,-90.15,7.65
0.28625499999998283,-437.98828,-701.66016,611.32812,0.06098,0.12195,-0.67073,12.75,-90.15,7.65
0.28894100000002254,-425.78125,-689.45312,600.58594,-0.85366,-0.54878,0.54878,11.55,-92.55,8.10
0.2915649999999914,-440.91797,-684.08203,610.35156,-1.21951,-1.58537,-0.97561,11.55,-92.55,8.10
0.2943119999999908,-444.82422,-700.19531,606.93359,-0.12195,0.67073,-0.91463,11.55,-92.55,8.10
0.2970579999999927,-441.89453,-694.82422,611.32812,-0.42683,0.06098,-0.24390,11.40,-91.20,7.65
0.29974400000003243,-440.91797,-695.80078,605.95703,0.85366,-0.48780,-1.28049,11.40,-91.20,7.65
0.30243000000007214,-423.33984,-707.51953,620.60547,0.48780,0.48780,-0.24390,11.40,-91.20,7.65
0.3051150000000007,-435.54687,-692.87109,593.75000,-0.85366,1.28049,-1.95122,11.40,-91.20,7.65
0.3078010000000404,-426.75781,-700.19531,604.00391,-0.54878,-0.79268,0.42683,11.40,-91.20,7.65
0.310608000000002,-426.75781,-698.73047,596.67969,-0.48780,0.18293,-0.48780,11.40,-91.20,7.65
0.31323300000008203,-436.52344,-704.10156,602.05078,-3.41463,2.62195,0.54878,11.40,-91.20,7.65
0.31597900000008394,-441.89453,-707.51953,613.28125,0.97561,0.85366,-0.06098,11.40,-91.20,7.65
0.31866500000000997,-444.33594,-691.89453,595.70312,-0.30488,-0.24390,-2.19512,11.40,-91.20,7.65
0.3214110000000119,-443.35937,-700.68359,597.65625,-1.70732,-1.34146,-2.50000,11.40,-91.20,7.65
0.32415800000001127,-443.84766,-715.82031,595.21484,-3.96341,1.21951,-0.73171,11.40,-91.20,7.65
0.326844000000051,-450.68359,-702.63672,608.88672,-0.36585,-2.74390,0.30488,11.25,-91.80,9.90
0.3295900000000529,-443.84766,-703.61328,603.02734,-0.79268,-1.34146,0.06098,11.25,-91.80,9.90
0.3322759999999789,-444.33594,-705.56641,602.53906,-0.97561,-0.73171,-2.62195,11.25,-91.80,9.90
0.33502199999998084,-445.31250,-691.40625,603.51562,-0.91463,-3.65854,-0.91463,11.25,-91.80,9.90
0.3377689999999802,-450.68359,-701.66016,598.63281,-2.43902,-2.92683,-1.40244,10.05,-94.05,8.85
0.34045400000002246,-431.15234,-697.75391,597.65625,-2.80488,-1.64634,-0.24390,10.05,-94.05,8.85
0.34320100000002185,-457.03125,-685.54687,626.46484,-2.01220,-0.18293,-0.18293,10.05,-94.05,8.85
0.34594800000002124,-431.15234,-713.37891,607.42187,-2.01220,0.30488,-0.67073,12.60,-91.80,8.55
0.3486330000000635,-449.21875,-700.68359,606.44531,-2.68293,-2.86585,0.12195,12.60,-91.80,8.55
0.35138000000006286,-427.73437,-701.17187,608.88672,-1.46341,-1.58537,-0.91463,12.60,-91.80,8.55
0.3540649999999914,-441.89453,-704.10156,601.07422,-3.78049,-3.29268,-2.68293,12.60,-91.80,8.55
0.3568119999999908,-448.73047,-694.33594,607.91016,-2.13415,-4.45122,-2.07317,10.05,-91.50,8.85
0.3595579999999927,-444.82422,-696.77734,611.81641,-3.53659,0.00000,-2.31707,10.05,-91.50,8.85
0.36224400000003243,-429.68750,-697.26562,600.09766,-4.08537,-3.96341,-2.43902,10.05,-91.50,8.85
0.3649910000000318,-438.96484,-700.19531,604.49219,-3.59756,-1.70732,-2.07317,11.70,-93.15,7.95
0.36767600000007405,-430.66406,-711.91406,602.53906,-0.60976,-4.63415,-1.52439,11.70,-93.15,7.95
0.37042300000007344,-433.10547,-683.59375,591.30859,-3.53659,-4.26829,-0.97561,11.70,-93.15,7.95
0.373108000000002,-445.80078,-698.24219,601.07422,-2.01220,-1.40244,-2.07317,11.70,-93.15,7.95
0.3758550000000014,-438.47656,-689.94141,599.60937,-2.31707,-6.34146,-2.50000,11.85,-91.80,7.05
0.3786010000000033,-436.03516,-695.80078,598.14453,-5.54878,-2.13415,-2.68293,11.85,-91.80,7.05
0.381287000000043,-450.68359,-704.58984,605.46875,-2.07317,-4.20732,-3.47561,11.85,-91.80,7.05
0.3840340000000424,-447.26562,-703.61328,613.28125,-4.02439,-0.73171,0.30488,11.85,-91.80,7.05
0.38671900000008463,-435.05859,-710.93750,602.05078,-6.03659,-5.06098,-4.93902,11.25,-91.80,8.55
0.3895270000000437,-437.98828,-708.00781,613.28125,-2.80488,-4.87805,-2.68293,11.25,-91.80,8.55
0.39221200000008594,-432.12891,-708.49609,603.51562,-3.35366,-3.17073,-7.74390,11.25,-91.80,8.55
0.39489800000001196,-435.54687,-713.37891,606.44531,-5.18293,-2.25610,-3.29268,10.65,-91.20,7.95
0.3976440000000139,-427.73437,-721.67969,614.74609,-3.17073,-5.67073,-1.09756,10.65,-91.20,7.95
0.40039100000001326,-434.08203,-705.07812,597.65625,-4.81707,-3.41463,-2.43902,10.65,-91.20,7.95
0.403077000000053,-437.50000,-717.77344,606.93359,-2.98780,-1.28049,-4.14634,10.65,-91.20,7.95
0.4058230000000549,-449.21875,-692.87109,603.51562,-2.74390,-7.68293,-1.15854,10.65,-91.20,7.95
0.4085700000000543,-431.15234,-708.00781,607.91016,-5.00000,-5.24390,-4.87805,10.65,-91.20,7.95
0.4111330000000635,-435.05859,-706.54297,616.21094,-4.81707,-5.54878,-1.15854,10.65,-91.20,7.95
0.4137580000000298,-435.05859,-699.70703,615.72266,-4.39024,-5.06098,-3.29268,10.65,-91.20,7.95
0.41650400000003174,-429.19922,-719.23828,610.83984,-2.56098,-2.43902,-3.23171,10.65,-91.20,7.95
0.41919000000007145,-413.57422,-704.58984,611.81641,-2.92683,-3.65854,-3.65854,10.65,-91.20,7.95
0.42199700000003304,-430.66406,-713.86719,606.93359,-4.93902,-1.70732,-2.98780,10.65,-91.20,7.95
0.42468300000007275,-428.22266,-706.54297,613.28125,-2.80488,-5.73171,-3.17073,9.90,-91.95,7.65
0.4274910000000318,-437.50000,-699.70703,605.46875,-3.23171,-1.76829,-1.95122,9.90,-91.95,7.65
0.43017600000007405,-432.61719,-705.56641,613.76953,-4.81707,-3.17073,-3.84146,9.90,-91.95,7.65
0.4329840000000331,-437.98828,-710.93750,618.65234,-2.07317,-2.92683,-2.98780,9.90,-91.95,7.65
0.43573000000003503,-440.42969,-713.37891,607.91016,-4.81707,-4.93902,-2.43902,11.40,-92.40,7.95
0.4384770000000344,-443.35937,-712.40234,605.95703,-3.29268,-1.21951,-2.80488,11.40,-92.40,7.95
0.44116200000007666,-429.68750,-703.61328,608.39844,-4.63415,-2.31707,-4.20732,11.40,-92.40,7.95
0.4439700000000357,-419.92187,-708.98437,613.28125,-3.53659,-4.75610,-3.59756,11.70,-92.40,7.65
0.44665600000007544,-422.85156,-711.91406,614.74609,-3.78049,-3.41463,-1.46341,11.70,-92.40,7.65
0.44940200000007735,-431.15234,-710.44922,615.23437,-5.36585,-1.52439,-4.75610,11.70,-92.40,7.65
0.4520880000000034,-431.15234,-703.12500,594.72656,-4.69512,-4.87805,-2.01220,11.70,-92.40,7.65
0.4547730000000456,-453.61328,-707.03125,613.76953,-2.86585,-4.14634,-2.80488,10.80,-92.25,7.05
0.457520000000045,-436.03516,-710.93750,612.30469,-6.95122,-0.91463,-3.84146,10.80,-92.25,7.05
0.4602660000000469,-439.94141,-703.12500,599.12109,-4.63415,-4.87805,-2.68293,10.80,-92.25,7.05
0.4629520000000866,-439.45312,-704.58984,604.49219,-3.41463,-3.23171,-1.40244,10.95,-92.70,7.95
0.465699000000086,-437.98828,-697.26562,611.81641,-4.69512,-2.80488,-5.36585,10.95,-92.70,7.95
0.46844500000008793,-432.12891,-700.68359,601.56250,-4.75610,-4.26829,-3.23171,10.95,-92.70,7.95
0.47113100000001396,-441.89453,-699.21875,599.12109,-3.41463,-2.19512,-2.56098,10.95,-92.70,7.95
0.4738160000000562,-435.54687,-698.73047,613.28125,-4.57317,-5.24390,-4.26829,11.85,-93.00,5.25
0.4765630000000556,-441.89453,-703.12500,600.58594,-5.06098,-4.26829,-4.14634,11.85,-93.00,5.25
0.47924799999998413,-443.35937,-701.17187,599.60937,-5.24390,-3.35366,-3.23171,11.85,-93.00,5.25
0.4819949999999835,-432.61719,-691.40625,603.02734,-3.47561,-3.78049,-4.20732,11.85,-93.00,5.25
0.4847419999999829,-440.91797,-710.44922,600.58594,-5.67073,-7.86585,-2.98780,10.05,-93.30,7.05
0.4874879999999848,-439.94141,-699.70703,608.39844,-5.73171,-0.48780,-3.04878,10.05,-93.30,7.05
0.49017400000002453,-426.26953,-714.84375,610.83984,-5.18293,-5.42683,-6.15854,10.05,-93.30,7.05
0.49285900000006677,-424.80469,-700.68359,615.72266,-3.90244,-7.01220,-3.90244,10.65,-92.70,7.35
0.49560600000006616,-431.15234,-711.42578,604.98047,-3.78049,-5.24390,-0.06098,10.65,-92.70,7.35
0.4982909999999947,-424.31641,-715.33203,604.00391,-3.65854,-1.21951,-5.18293,10.65,-92.70,7.35
0.5010379999999941,-428.71094,-715.33203,614.25781,-5.48780,-5.18293,-2.07317,10.65,-92.70,7.35
0.5037230000000363,-439.94141,-710.93750,622.55859,-6.82927,-4.02439,-1.28049,10.65,-92.70,7.35
0.5064700000000357,-429.68750,-723.14453,613.76953,-3.53659,-5.85366,-3.23171,10.65,-92.70,7.35
0.5091560000000754,-430.17578,-726.56250,622.07031,-5.73171,-4.81707,-2.68293,10.65,-92.70,7.35
0.511841000000004,-427.24609,-724.60937,613.76953,-5.00000,-3.78049,-7.07317,10.65,-92.70,7.35
0.5145880000000034,-424.31641,-723.14453,616.21094,-4.81707,-6.46341,-0.67073,10.65,-92.70,7.35
0.5172120000000859,-425.78125,-737.79297,614.74609,-3.65854,-4.02439,-5.54878,10.65,-92.70,7.35
0.5199590000000853,-418.94531,-714.84375,602.53906,-4.57317,-3.96341,-2.37805,10.65,-92.70,7.35
0.5227050000000872,-423.82812,-716.30859,615.23437,-4.63415,-3.65854,-2.56098,10.95,-92.40,7.35
0.5254520000000866,-422.85156,-720.70312,618.16406,-4.51220,-2.98780,-2.92683,10.95,-92.40,7.35
0.5281380000000127,-432.12891,-714.35547,618.16406,-3.96341,-4.14634,-0.06098,10.95,-92.40,7.35
0.5308840000000146,-430.66406,-710.44922,616.21094,-4.81707,-3.23171,-3.71951,10.95,-92.40,7.35
0.533631000000014,-432.12891,-722.16797,613.28125,-10.85366,-2.98780,-8.53659,11.55,-92.25,6.00
0.5363770000000159,-422.85156,-720.70312,598.14453,-1.34146,-1.21951,5.54878,11.55,-92.25,6.00
0.5390630000000556,-430.17578,-709.47266,604.98047,-3.17073,-6.82927,-7.31707,11.55,-92.25,6.00
0.5418090000000575,-425.78125,-725.09766,610.83984,-4.93902,-5.18293,-1.09756,10.95,-91.95,6.15
0.5445560000000569,-432.12891,-726.56250,607.42187,-3.47561,-4.08537,-5.06098,10.95,-91.95,6.15
0.5472419999999829,-424.31641,-722.16797,609.37500,-1.82927,-2.74390,-0.85366,10.95,-91.95,6.15
0.5499270000000251,-431.64062,-720.70312,611.81641,-1.52439,-1.34146,-4.14634,10.95,-91.95,6.15
0.5526740000000245,-424.80469,-713.37891,619.14062,-1.03659,-4.26829,-0.73171,11.25,-91.05,6.75
0.5554200000000264,-421.38672,-721.19141,624.51172,-1.76829,-6.09756,-2.13415,11.25,-91.05,6.75
0.5581060000000662,-419.43359,-720.21484,611.32812,-3.23171,-2.19512,-5.00000,11.25,-91.05,6.75
0.5608520000000681,-414.55078,-724.12109,611.32812,-2.13415,-2.25610,-3.90244,9.30,-91.50,6.75
0.5635990000000675,-426.75781,-723.14453,604.49219,-2.01220,-4.81707,-3.41463,9.30,-91.50,7.50
0.5662849999999935,-422.36328,-702.63672,596.67969,-0.60976,-1.21951,-2.19512,9.30,-91.50,7.50
0.5689700000000357,-438.47656,-702.63672,601.07422,-2.37805,-5.36585,-2.31707,9.30,-91.50,7.50
0.5717170000000351,-430.17578,-706.05469,617.67578,-0.97561,-5.85366,-1.15854,10.50,-92.25,6.45
0.574463000000037,-426.26953,-723.14453,618.16406,-0.60976,-5.97561,-3.78049,10.50,-92.25,6.45
0.5771490000000767,-414.06250,-716.79687,614.25781,-0.91463,-4.39024,-0.97561,10.50,-92.25,6.45
0.5798950000000787,-434.08203,-713.37891,612.79297,0.79268,-4.57317,-2.37805,10.50,-92.25,6.45
0.582642000000078,-416.01562,-729.49219,594.23828,-1.21951,-2.25610,-0.42683,11.25,-90.60,8.10
0.5853890000000774,-419.43359,-723.63281,604.00391,-1.64634,-6.03659,-0.12195,11.25,-90.60,8.10
0.588074000000006,-414.55078,-716.79687,617.18750,-0.91463,-2.43902,0.18293,11.25,-90.60,8.10
0.5908210000000054,-409.17969,-721.19141,606.93359,-1.34146,-3.10976,-3.41463,9.75,-91.50,6.45
0.5935670000000073,-414.55078,-721.19141,602.05078,-1.03659,-3.84146,-1.03659,9.75,-91.50,6.45
0.5961920000000873,-419.43359,-722.16797,609.37500,-0.24390,-2.13415,-5.24390,9.75,-91.50,6.45
0.5988770000000159,-410.15625,-712.89062,616.21094,0.36585,-2.56098,-0.48780,9.75,-91.50,6.45
0.6016240000000153,-402.83203,-715.33203,609.86328,-1.28049,-3.59756,-1.58537,9.75,-91.50,6.45
0.6043700000000172,-419.92187,-712.89062,609.37500,-0.36585,-3.47561,-1.58537,9.75,-91.50,6.45
0.6070560000000569,-417.48047,-722.65625,614.74609,-2.74390,-2.74390,-1.46341,9.75,-91.50,6.45
0.6098030000000563,-408.69141,-721.67969,610.83984,1.82927,-2.25610,-0.30488,9.75,-91.50,6.45
0.6125490000000582,-413.57422,-703.61328,618.65234,-1.09756,-2.68293,-4.02439,9.75,-91.50,6.45
0.6152349999999842,-417.48047,-727.05078,610.83984,-2.01220,-1.64634,0.36585,9.75,-91.50,6.45
0.6179200000000264,-432.61719,-721.19141,603.02734,-0.48780,-1.82927,-1.64634,9.75,-91.50,6.45
0.6206670000000258,-414.55078,-720.21484,619.62891,-0.12195,-2.13415,-2.50000,11.70,-91.95,7.65
0.6233520000000681,-413.57422,-726.07422,610.35156,-2.43902,0.00000,-3.35366,11.70,-91.95,7.65
0.6260990000000675,-412.10937,-721.19141,613.76953,-0.67073,2.19512,-2.31707,11.70,-91.95,7.65
0.6287849999999935,-414.55078,-710.44922,615.23437,-0.60976,-1.58537,-1.09756,11.70,-91.95,7.65
0.6315309999999954,-409.17969,-723.14453,614.74609,-1.58537,0.24390,-1.70732,11.40,-92.70,6.60
0.6342170000000351,-421.38672,-729.00391,617.18750,-0.36585,0.73171,1.21951,11.40,-92.70,6.60
0.6369020000000774,-405.27344,-720.21484,610.83984,-1.40244,-1.21951,-1.64634,11.40,-92.70,6.60
0.6397100000000364,-416.50391,-716.79687,612.30469,-2.25610,-2.25610,-0.42683,10.50,-92.25,7.50
0.6423950000000787,-410.15625,-719.23828,608.88672,-1.34146,1.82927,1.15854,10.50,-92.25,7.50
0.6450810000000047,-412.59766,-717.28516,603.51562,-1.09756,-0.79268,1.03659,10.50,-92.25,7.50
0.6478270000000066,-419.92187,-714.84375,602.53906,-0.85366,2.25610,-1.46341,10.50,-92.25,7.50
0.650574000000006,-418.94531,-715.82031,597.65625,-1.34146,-0.48780,0.30488,10.80,-91.80,8.55
0.6532600000000457,-421.38672,-709.96094,609.86328,-1.76829,0.48780,-1.40244,10.80,-91.80,8.55
0.6559450000000879,-429.68750,-717.28516,613.28125,-0.48780,0.85366,0.67073,10.80,-91.80,8.55
0.6586920000000873,-422.36328,-717.77344,612.30469,0.79268,-0.91463,-0.67073,9.75,-91.80,8.55
0.6614380000000892,-416.01562,-705.56641,604.49219,0.48780,-1.15854,0.06098,9.75,-92.55,7.80
0.6641240000000153,-420.89844,-724.60937,602.05078,0.42683,-1.03659,1.28049,9.75,-92.55,7.80
0.6668090000000575,-431.15234,-710.93750,616.69922,0.12195,0.00000,-1.34146,9.75,-92.55,7.80
0.6695560000000569,-430.66406,-710.44922,614.25781,0.42683,3.17073,0.00000,10.95,-91.95,7.65
0.6721190000000661,-423.33984,-711.42578,597.65625,-0.60976,0.91463,-0.42683,10.95,-91.95,7.65
0.6748660000000655,-408.20312,-713.37891,613.76953,0.06098,-0.54878,-0.30488,10.95,-91.95,7.65
0.6775519999999915,-416.01562,-715.33203,611.32812,-0.67073,0.00000,-0.67073,10.95,-91.95,7.65
0.6802979999999934,-423.82812,-720.21484,615.72266,0.24390,1.34146,-0.54878,9.60,-91.95,6.90
0.6829840000000331,-424.80469,-715.33203,608.39844,-0.97561,1.46341,-1.40244,9.60,-91.95,6.90
0.6856690000000754,-422.85156,-717.28516,614.74609,0.97561,0.00000,-0.06098,9.60,-91.95,6.90
0.6884160000000747,-421.38672,-715.82031,610.83984,0.91463,-0.79268,-0.97561,10.50,-91.50,6.75
0.6911010000000033,-417.96875,-713.86719,616.69922,-2.07317,2.86585,-2.01220,10.50,-91.50,6.75
0.6938480000000027,-429.19922,-711.42578,611.81641,1.03659,-0.73171,-0.06098,10.50,-91.50,6.75
0.6965340000000424,-425.29297,-713.86719,603.51562,-0.30488,0.79268,-1.40244,10.50,-91.50,6.75
0.6992800000000443,-414.55078,-704.10156,611.81641,1.64634,0.91463,0.18293,10.50,-91.50,6.75
0.701966000000084,-428.22266,-716.30859,598.63281,-0.73171,0.73171,-2.19512,10.50,-91.50,6.75
0.7047120000000859,-415.52734,-707.51953,600.09766,0.97561,1.09756,-1.52439,10.50,-91.50,6.75
0.7074590000000853,-418.45703,-701.66016,611.32812,0.24390,1.52439,0.06098,10.50,-91.50,6.75
0.7100830000000542,-422.36328,-712.40234,608.88672,0.85366,-0.79268,-1.58537,10.50,-91.50,6.75
0.7128300000000536,-425.78125,-714.84375,606.44531,1.76829,-0.42683,0.91463,10.50,-91.50,6.75
0.7155149999999821,-417.96875,-714.35547,606.44531,0.73171,-1.03659,1.09756,10.50,-91.50,6.75
0.7182010000000218,-420.89844,-712.89062,605.95703,1.15854,0.79268,-0.42683,10.80,-93.30,8.10
0.7207650000000285,-422.85156,-707.03125,614.74609,0.48780,-0.30488,-1.15854,10.80,-93.30,8.10
0.7235110000000304,-422.36328,-699.21875,620.60547,1.46341,0.48780,0.06098,10.80,-93.30,8.10
0.7261359999999968,-434.08203,-714.84375,617.18750,-2.50000,0.06098,-3.17073,10.80,-93.30,8.10
0.728821000000039,-428.71094,-713.37891,625.48828,0.18293,0.06098,-1.40244,9.90,-91.95,7.35
0.7315680000000384,-416.01562,-706.54297,607.91016,1.09756,1.89024,-0.73171,9.90,-91.95,7.35
0.7342530000000806,-419.92187,-718.26172,617.67578,-0.60976,-3.23171,-1.76829,9.90,-91.95,7.35
0.7369390000000067,-421.87500,-726.07422,595.70312,-2.86585,0.42683,-0.60976,9.90,-91.95,7.35
0.7396850000000086,-421.87500,-715.82031,608.39844,0.54878,2.07317,0.12195,11.25,-91.80,7.80
0.7423710000000483,-424.80469,-708.98437,600.58594,0.12195,-0.54878,-2.62195,11.25,-91.80,7.80
0.745057000000088,-417.96875,-717.77344,607.42187,-1.82927,-3.10976,-0.67073,11.25,-91.80,7.80
0.7478029999999762,-420.89844,-714.84375,594.23828,-0.12195,-1.52439,-0.97561,9.00,-91.05,7.50
0.750489000000016,-432.61719,-704.58984,609.37500,0.24390,-0.12195,-1.21951,9.00,-91.05,7.50
0.7531740000000582,-428.22266,-722.16797,609.37500,0.06098,-2.74390,-1.28049,9.00,-91.05,7.50
0.7559210000000576,-416.01562,-704.10156,606.44531,0.06098,0.73171,-2.13415,9.00,-91.05,7.50
0.7586059999999861,-416.50391,-705.56641,601.56250,-0.24390,-1.70732,0.06098,11.85,-92.25,6.75
0.7612920000000258,-416.50391,-717.28516,607.91016,-0.60976,-0.79268,-2.31707,11.85,-92.25,6.75
0.7639770000000681,-425.78125,-707.03125,603.51562,0.06098,-3.23171,-1.46341,11.85,-92.25,6.75
0.7667240000000675,-412.59766,-717.77344,597.16797,-0.06098,-1.03659,-0.36585,9.90,-91.65,6.15
0.7694710000000669,-422.36328,-718.26172,612.79297,0.06098,-0.24390,-3.17073,9.90,-91.65,6.15
0.7721559999999954,-418.45703,-718.75000,605.46875,-0.12195,-2.25610,-1.34146,9.90,-91.65,6.15
0.7748420000000351,-417.96875,-701.17187,605.46875,-0.06098,-1.64634,-1.21951,9.90,-91.65,6.15
0.777588000000037,-430.66406,-713.86719,606.44531,-0.24390,0.48780,-1.03659,10.35,-93.15,9.00
0.780091000000084,-423.33984,-715.33203,608.39844,0.48780,-0.30488,-0.79268,10.35,-93.15,9.00
0.7827760000000126,-429.19922,-717.28516,601.56250,-0.97561,-1.58537,-1.21951,10.35,-93.15,9.00
0.7855840000000853,-420.89844,-701.66016,611.81641,-1.76829,-0.42683,-2.74390,10.35,-93.15,9.00
0.7882690000000139,-427.73437,-715.82031,614.25781,-1.03659,-1.82927,-3.10976,9.90,-92.70,7.65
0.7909550000000536,-421.87500,-703.61328,604.00391,-0.60976,-1.82927,-1.89024,9.90,-92.70,7.65
0.793702000000053,-421.38672,-709.47266,606.44531,-0.30488,-3.90244,-1.89024,9.90,-92.70,7.65
0.7964480000000549,-416.50391,-716.30859,613.28125,0.60976,0.54878,-0.97561,9.90,-92.70,7.65
0.7991339999999809,-418.94531,-697.75391,614.25781,-0.67073,-2.98780,-3.59756,9.90,-92.70,7.65
0.8018190000000232,-417.96875,-715.33203,605.46875,-1.15854,-3.78049,-2.68293,9.90,-92.70,7.65
0.8045660000000225,-423.82812,-711.91406,612.30469,1.70732,-1.76829,-2.68293,9.90,-92.70,7.65
0.8072510000000648,-411.62109,-707.03125,615.23437,0.85366,-5.12195,-4.51220,9.90,-92.70,7.65
0.8099980000000642,-437.50000,-716.79687,604.98047,-0.24390,-0.60976,-0.67073,9.90,-92.70,7.65
0.8127440000000661,-434.08203,-719.72656,609.37500,-2.43902,-3.10976,-1.70732,9.90,-92.70,7.65
0.8154910000000655,-415.03906,-714.35547,609.86328,1.64634,-5.30488,-3.41463,9.90,-92.70,7.65
0.8181160000000318,-420.89844,-724.12109,620.11719,1.58537,-2.92683,-2.68293,10.50,-93.75,6.75
0.8208620000000337,-419.92187,-721.19141,609.86328,-0.24390,-3.35366,-3.96341,10.50,-93.75,6.75
0.8235480000000734,-422.36328,-714.84375,611.32812,0.91463,-3.10976,-2.19512,10.50,-93.75,6.75
0.826233000000002,-416.99219,-714.84375,615.23437,2.01220,-3.71951,-3.53659,10.65,-93.45,6.60
0.8289800000000014,-414.55078,-721.19141,607.42187,0.12195,-2.01220,-2.68293,10.65,-93.45,6.60
0.8316650000000436,-412.59766,-725.58594,613.28125,1.76829,-3.59756,-2.01220,10.65,-93.45,6.60
0.8343510000000833,-426.75781,-724.12109,625.00000,1.82927,-3.53659,-3.29268,10.65,-93.45,6.60
0.8370980000000827,-415.03906,-715.33203,603.02734,0.91463,-2.80488,-1.28049,11.70,-91.95,7.35
0.8397830000000113,-418.94531,-725.58594,611.32812,0.18293,-4.08537,-4.20732,11.70,-91.95,7.35
0.8425300000000107,-412.10937,-729.49219,621.58203,1.64634,-4.02439,-0.06098,11.70,-91.95,7.35
0.8452150000000529,-407.71484,-725.58594,605.46875,2.19512,-2.98780,-3.96341,10.35,-92.40,6.90
0.8479620000000523,-405.76172,-713.86719,603.51562,3.96341,-4.39024,-3.10976,10.35,-92.40,6.90
0.8507080000000542,-405.76172,-719.72656,621.09375,3.35366,-4.87805,-1.28049,10.35,-92.40,6.90
0.8533939999999802,-423.33984,-721.67969,619.62891,3.29268,-7.07317,-1.95122,10.35,-92.40,6.90
0.8561399999999821,-412.10937,-723.63281,615.72266,2.92683,-3.23171,-1.82927,10.65,-91.95,7.65
0.8588260000000218,-414.06250,-721.19141,621.09375,1.95122,-5.73171,0.73171,10.65,-91.95,7.65
0.8615730000000212,-406.73828,-729.98047,614.25781,4.63415,-3.90244,-1.09756,10.65,-91.95,7.65
0.8642580000000635,-413.57422,-737.79297,617.18750,1.40244,-4.20732,-1.15854,10.65,-91.95,7.65
0.8669439999999895,-417.48047,-715.33203,622.55859,2.25610,-4.63415,-0.36585,10.35,-92.70,5.85
0.8696290000000317,-419.92187,-709.96094,614.25781,1.58537,-6.58537,-1.82927,10.35,-92.70,5.85
0.8723760000000311,-422.85156,-731.44531,623.53516,2.62195,-4.39024,-0.79268,10.35,-92.70,5.85
0.8750610000000734,-422.36328,-731.44531,627.92969,2.86585,-0.36585,-0.48780,9.15,-92.70,8.40
0.8778080000000728,-424.31641,-737.79297,638.67187,5.06098,-4.02439,1.34146,9.15,-92.70,8.40
0.8805550000000721,-402.83203,-731.93359,628.90625,4.93902,-2.62195,-1.15854,9.15,-92.70,8.40
0.883179000000041,-390.13672,-727.53906,622.55859,5.97561,-4.57317,0.42683,9.15,-92.70,8.40
0.8858650000000807,-401.36719,-734.86328,645.99609,3.71951,-1.15854,0.67073,9.75,-92.25,7.80
0.8886110000000826,-398.92578,-737.30469,639.64844,2.92683,-3.04878,0.12195,9.75,-92.25,7.80
0.891236000000049,-407.22656,-737.30469,637.20703,4.39024,-3.59756,2.13415,9.75,-92.25,7.80
0.8939820000000509,-413.08594,-736.81641,646.48437,3.53659,-4.26829,0.54878,9.75,-92.25,7.80
0.8966679999999769,-413.57422,-741.21094,619.62891,0.48780,-0.85366,1.76829,9.75,-92.25,7.80
0.8993530000000192,-395.01953,-749.02344,631.34766,1.82927,-0.42683,1.64634,9.75,-92.25,7.80
0.9020390000000589,-411.13281,-750.00000,632.81250,2.19512,-1.76829,1.89024,9.75,-92.25,7.80
0.9047860000000583,-405.27344,-752.44141,643.55469,3.04878,0.67073,3.53659,9.75,-92.25,7.80
0.9074709999999868,-401.85547,-742.67578,639.64844,2.31707,-1.76829,1.52439,9.75,-92.25,7.80
0.9101570000000265,-405.76172,-762.20703,641.11328,2.68293,1.46341,4.51220,9.75,-92.25,7.80
0.9128420000000688,-395.50781,-753.90625,634.27734,0.73171,-0.85366,3.90244,9.75,-92.25,7.80
0.9155890000000682,-399.90234,-765.62500,635.74219,1.76829,-0.42683,3.71951,9.00,-92.55,8.10
0.9182739999999967,-402.83203,-756.83594,614.74609,2.80488,-2.68293,7.62195,9.00,-92.55,8.10
0.9209600000000364,-414.06250,-754.88281,627.92969,-1.34146,2.92683,4.32927,9.00,-92.55,8.10
0.9237060000000383,-437.50000,-744.62891,619.14062,1.58537,1.58537,7.13415,11.55,-93.75,6.75
0.926392000000078,-435.54687,-753.90625,614.25781,0.36585,-0.73171,4.08537,11.55,-93.75,6.75
0.9290770000000066,-427.24609,-748.53516,624.51172,-1.40244,1.82927,4.93902,11.55,-93.75,6.75
0.9317630000000463,-437.50000,-745.60547,623.53516,2.98780,0.97561,4.63415,11.55,-93.75,6.75
0.9345100000000457,-426.26953,-749.02344,609.86328,3.41463,-2.43902,6.64634,10.80,-93.00,7.05
0.9371950000000879,-442.87109,-751.95312,622.07031,2.31707,-3.59756,7.07317,10.80,-93.00,7.05
0.9399420000000873,-439.94141,-759.27734,594.23828,5.91463,-2.01220,4.32927,10.80,-93.00,7.05
0.9426880000000892,-426.75781,-775.39062,577.63672,5.79268,-8.10976,4.69512,10.80,-93.00,7.05
0.9454350000000886,-429.68750,-752.44141,576.17187,5.00000,-9.75610,4.51220,10.80,-91.50,6.75
0.9481200000000172,-442.87109,-724.60937,581.05469,4.51220,-11.82927,5.42683,10.80,-91.50,6.75
0.9508670000000166,-441.40625,-725.09766,570.31250,7.19512,-12.68293,4.14634,10.80,-91.50,6.75
0.953614000000016,-470.70312,-729.00391,582.51953,-2.01220,-14.57317,-1.95122,9.15,-92.70,6.90
0.9562990000000582,-480.95703,-713.37891,596.67969,9.02439,-16.76829,3.71951,9.15,-92.70,6.90
0.9590460000000576,-488.76953,-707.03125,617.67578,10.48780,-18.65854,-0.24390,9.15,-92.70,6.90
0.9617920000000595,-472.65625,-718.26172,580.56641,18.59756,-18.65854,5.24390,9.15,-92.70,6.90
0.9645390000000589,-458.00781,-706.54297,611.81641,15.00000,-23.35366,1.34146,9.90,-92.40,8.70
0.9672239999999874,-456.54297,-690.91797,580.56641,13.59756,-22.13415,-0.73171,9.90,-92.40,8.70
0.9699709999999868,-467.77344,-678.22266,602.05078,14.20732,-29.39024,3.47561,9.90,-92.40,8.70
0.9727179999999862,-508.30078,-667.96875,626.46484,10.54878,-26.15854,-5.79268,9.00,-93.00,8.55
0.9754639999999881,-515.62500,-639.16016,628.90625,20.30488,-24.32927,-3.35366,9.00,-93.00,8.55
0.9781500000000278,-497.07031,-633.78906,631.83594,21.76829,-26.52439,-2.13415,9.00,-93.00,8.55
0.9808960000000297,-450.19531,-658.20312,620.60547,23.47561,-31.46342,-14.26829,9.00,-93.00,8.55
0.9836430000000291,-456.05469,-645.01953,622.55859,22.86585,-30.85366,-9.75610,10.50,-91.50,6.75
0.9863900000000285,-473.14453,-685.05859,610.83984,26.46342,-37.98780,-15.42683,10.50,-91.50,6.75
0.9891360000000304,-588.86719,-839.35547,632.32422,28.10976,-31.64634,-15.18293,10.50,-91.50,6.75
0.9918830000000298,-670.89844,-920.89844,625.48828,35.91463,-33.04878,-7.37805,10.50,-91.50,6.75
0.9946290000000317,-706.54297,-914.55078,607.91016,40.36585,-38.84146,-15.00000,10.50,-91.50,6.75
0.9973760000000311,-705.07812,-879.39453,585.44922,51.64634,-41.64634,-16.03658,10.50,-91.50,6.75
1.000122000000033,-687.01172,-870.11719,599.12109,54.57317,-45.79268,-16.03658,10.50,-91.50,6.75
1.0028690000000324,-694.33594,-848.63281,599.60937,53.96341,-46.89024,-17.92683,10.50,-91.50,6.75
1.0056160000000318,-772.94922,-696.28906,628.41797,55.73171,-50.00000,-9.51220,10.50,-91.50,6.75
1.008301000000074,-906.25000,-513.67187,768.55469,54.08537,-49.51220,-6.15854,10.50,-91.50,6.75
1.010987,-924.31641,-626.46484,841.79687,48.84146,-47.74390,-15.48780,10.50,-91.50,6.75
1.0137940000000754,-892.08984,-695.31250,808.10547,51.76829,-57.74390,-19.02439,8.85,-93.45,10.50
1.0165410000000747,-872.55859,-680.17578,848.63281,56.58537,-65.42683,-15.54878,8.85,-93.45,10.50
1.0192260000000033,-875.48828,-659.66797,885.74219,62.62195,-80.42683,-12.19512,8.85,-93.45,10.50
1.0219730000000027,-854.49219,-551.26953,918.45703,63.17073,-85.30488,-12.13415,9.15,-93.15,12.00
1.024720000000002,-773.92578,-540.52734,951.66016,59.45122,-88.47561,-11.46341,9.15,-93.15,12.00
1.027466000000004,-663.57422,-576.17187,970.21484,52.01220,-87.31707,-13.29268,9.15,-93.15,12.00
1.0301520000000437,-538.08594,-574.21875,981.44531,50.00000,-85.48781,-16.03658,9.15,-93.15,12.00
1.032837000000086,-447.75391,-549.80469,1007.81250,40.79268,-81.03658,-22.37805,9.75,-93.00,13.50
1.0355840000000853,-362.79297,-537.59766,981.93359,34.57317,-77.98781,-20.48780,9.75,-93.00,13.50
1.0382690000000139,-286.62109,-496.09375,975.58594,25.91463,-67.43903,-19.26829,9.75,-93.00,13.50
1.0410160000000133,-259.27734,-493.65234,951.66016,19.02439,-57.50000,-22.07317,9.15,-93.15,12.00
1.0437630000000127,-263.18359,-469.23828,992.67578,13.59756,-43.23171,-17.62195,9.15,-93.15,12.00
1.0465090000000146,-254.88281,-498.04687,975.58594,7.01220,-25.79268,-25.36585,9.15,-93.15,12.00
1.0491950000000543,-264.64844,-483.88672,996.58203,1.82927,-14.57317,-23.47561,9.15,-93.15,12.00
1.0519410000000562,-291.01562,-528.32031,991.69922,-1.34146,-7.07317,-22.50000,9.30,-93.00,11.40
1.0546880000000556,-334.47266,-552.24609,985.35156,-6.89024,7.98780,-22.37805,9.30,-93.00,11.40
1.0573729999999841,-385.25391,-559.57031,969.72656,-10.18293,12.74390,-22.98780,9.30,-93.00,11.40
1.0601199999999835,-439.45312,-560.05859,958.98437,-14.75610,17.86585,-22.43902,9.30,-93.00,11.40
1.062866999999983,-502.92969,-533.20312,931.15234,-14.14634,23.71951,-22.80488,9.15,-92.70,12.60
1.0656129999999848,-562.50000,-523.92578,920.89844,-19.69512,28.10976,-21.70732,9.15,-92.70,12.60
1.0683599999999842,-602.05078,-517.57812,920.89844,-19.14634,27.68293,-25.36585,9.15,-92.70,12.60
1.0711059999999861,-634.27734,-512.69531,920.41016,-23.59756,26.95122,-25.30488,10.05,-91.05,12.15
1.0738529999999855,-634.76562,-516.11328,917.48047,-24.93902,27.86585,-26.82927,10.05,-91.05,12.15
1.0765989999999874,-628.90625,-509.76562,926.75781,-27.56098,23.41463,-23.41463,10.05,-91.05,12.15
1.0793459999999868,-625.97656,-496.09375,924.80469,-29.45122,24.87805,-24.63415,10.05,-91.05,12.15
1.0820929999999862,-622.07031,-479.98047,960.93750,-30.97561,25.67073,-27.62195,10.65,-91.95,11.55
1.0847780000000284,-603.02734,-488.28125,965.33203,-35.60976,24.51220,-25.30488,10.65,-91.95,11.55
1.0875859999999875,-589.35547,-510.25391,973.63281,-37.56097,20.60976,-25.67073,10.65,-91.95,11.55
1.0902710000000297,-563.47656,-515.62500,990.23437,-38.59756,22.56098,-25.30488,10.65,-91.95,11.55
1.0930180000000291,-541.50391,-518.06641,1008.78906,-40.73171,24.45122,-22.62195,10.65,-91.95,11.55
1.0957650000000285,-530.76172,-522.94922,1020.50781,-39.69512,22.92683,-24.87805,10.65,-91.95,11.55
1.0985719999999901,-522.94922,-520.99609,1034.66797,-39.51220,29.14634,-25.60976,10.65,-91.95,11.55
1.1012580000000298,-513.67187,-512.20703,1047.36328,-39.26829,28.35366,-21.52439,10.65,-91.95,11.55
1.1040040000000317,-509.76562,-519.53125,1070.31250,-41.09756,29.57317,-22.74390,10.65,-91.95,11.55
1.1067510000000311,-496.58203,-520.01953,1077.63672,-39.93903,30.91463,-21.40244,10.65,-91.95,11.55
1.109497000000033,-490.23437,-504.88281,1078.61328,-37.80488,30.42683,-20.67073,10.65,-91.95,11.55
1.1122440000000324,-489.25781,-506.34766,1084.96094,-36.52439,36.40244,-18.65854,9.00,-91.80,11.10
1.1149910000000318,-470.21484,-495.60547,1079.58984,-33.59756,36.34146,-14.87805,9.00,-91.80,11.10
1.1177370000000337,-473.14453,-493.65234,1086.42578,-33.78049,38.65854,-13.35366,9.00,-91.80,11.10
1.1204840000000331,-481.93359,-478.51562,1090.33203,-29.63415,37.56097,-12.07317,7.20,-93.30,12.90
1.1231690000000754,-486.32812,-465.82031,1073.24219,-29.57317,41.52439,-11.09756,7.20,-93.30,12.90
1.1259770000000344,-491.69922,-435.54687,1079.10156,-27.56098,38.53659,-9.69512,7.20,-93.30,12.90
1.1286620000000767,-484.37500,-445.31250,1069.82422,-27.56098,39.45122,-7.43902,7.20,-93.30,12.90
1.131409000000076,-483.88672,-417.48047,1079.58984,-24.57317,37.01220,-7.07317,6.60,-90.90,10.50
1.1341560000000754,-487.30469,-385.74219,1062.01172,-23.23171,36.76829,-4.87805,6.60,-90.90,10.50
1.136841000000004,-493.65234,-395.01953,1074.21875,-23.04878,35.06097,-4.02439,6.60,-90.90,10.50
1.1395880000000034,-471.19141,-349.12109,1076.17188,-20.48780,34.51220,-5.36585,8.40,-91.20,10.50
1.1422730000000456,-458.49609,-352.53906,1069.82422,-16.46342,33.90244,-4.63415,8.40,-91.20,10.50
1.145020000000045,-445.31250,-332.03125,1068.84766,-17.68293,30.06098,-4.32927,8.40,-91.20,10.50
1.147766000000047,-448.73047,-324.21875,1059.08203,-14.81707,29.45122,-4.69512,8.40,-91.20,10.50
1.150574000000006,-449.70703,-297.85156,1056.15234,-15.00000,26.15854,-2.86585,7.20,-93.00,10.65
1.1532600000000457,-440.91797,-279.78516,1059.57031,-11.89024,29.26829,-3.47561,7.20,-93.00,10.65
1.1560060000000476,-432.61719,-271.97266,1056.15234,-11.58537,23.84146,-1.46341,7.20,-93.00,10.65
1.158753000000047,-417.96875,-252.92969,1052.73438,-8.78049,24.26829,-3.29268,7.95,-93.30,12.45
1.161499000000049,-397.94922,-247.07031,1052.73438,-7.80488,24.08537,-1.82927,7.95,-93.30,12.45
1.1641850000000886,-390.13672,-231.93359,1050.78125,-5.36585,21.64634,-2.50000,7.95,-93.30,12.45
1.166932000000088,-385.25391,-216.79687,1043.45703,-4.14634,22.31707,-1.89024,7.95,-93.30,12.45
1.1696779999999762,-376.95312,-207.03125,1035.15625,-4.63415,21.40244,-0.91463,7.50,-91.80,11.10
1.172486000000049,-372.07031,-202.63672,1035.15625,-2.19512,21.09756,-2.86585,7.50,-91.80,11.10
1.1751709999999775,-377.92969,-190.42969,1042.96875,-0.54878,20.60976,-0.91463,7.50,-91.80,11.10
1.1779790000000503,-367.18750,-184.57031,1032.22656,-0.73171,20.91463,-1.15854,7.05,-93.45,12.00
1.1806639999999788,-382.32422,-174.31641,1025.39063,0.30488,21.46342,1.76829,7.05,-93.45,12.00
1.1834109999999782,-379.88281,-159.17969,1025.87891,2.68293,19.75610,-2.25610,7.05,-93.45,12.00
1.186097000000018,-388.18359,-158.20312,1035.15625,2.37805,21.76829,2.98780,7.05,-93.45,12.00
1.1888430000000199,-390.13672,-164.55078,1020.99609,4.39024,20.00000,1.70732,7.05,-93.45,12.00
1.1915290000000596,-400.39062,-143.06641,1011.71875,4.20732,15.79268,5.60976,7.05,-93.45,12.00
1.1942139999999881,-412.59766,-163.08594,1003.41797,5.18293,18.35366,4.57317,7.05,-93.45,12.00
1.1969609999999875,-419.92187,-159.66797,999.02344,6.15854,19.20732,5.36585,7.05,-93.45,12.00
1.1996460000000297,-419.43359,-145.01953,990.72266,7.62195,15.12195,9.75610,7.05,-93.45,12.00
1.2023930000000291,-443.35937,-144.04297,989.74609,7.31707,16.21951,10.73171,7.05,-93.45,12.00
1.2050780000000714,-431.15234,-132.81250,965.33203,8.29268,11.82927,10.48780,7.05,-93.45,12.00
1.2078250000000708,-460.93750,-109.37500,967.77344,12.74390,12.43902,10.24390,8.70,-92.25,11.70
1.2105109999999968,-458.98437,-128.41797,962.40234,12.37805,12.86585,12.19512,8.70,-92.25,11.70
1.213196000000039,-459.96094,-114.25781,950.68359,10.85366,9.02439,12.86585,8.70,-92.25,11.70
1.2158820000000787,-475.58594,-101.07422,945.80078,12.80488,8.78049,13.04878,8.70,-92.25,11.70
1.2186280000000806,-458.49609,-118.65234,945.80078,13.90244,7.98780,18.10976,9.00,-92.55,12.90
1.2213140000000067,-458.00781,-108.39844,937.50000,15.06098,5.18293,16.89024,9.00,-92.55,12.90
1.223999000000049,-450.19531,-102.53906,931.64062,13.53659,8.04878,18.59756,9.00,-92.55,12.90
1.2267460000000483,-465.33203,-108.39844,924.31641,13.41463,6.21951,22.50000,9.00,-92.55,12.90
1.229432000000088,-466.30859,-100.58594,916.50391,14.93902,2.74390,21.76829,7.50,-93.00,14.70
1.2321170000000166,-469.23828,-149.90234,918.45703,13.53659,3.29268,22.31707,7.50,-93.00,14.70
1.234864000000016,-481.44531,-118.65234,921.87500,13.10976,2.07317,23.41463,7.50,-93.00,14.70
1.2376100000000179,-477.05078,-135.74219,917.96875,13.96341,0.42683,25.24390,8.40,-90.90,16.20
1.2402960000000576,-476.07422,-153.80859,907.71484,15.85366,0.67073,28.10976,8.40,-90.90,16.20
1.2429809999999861,-478.51562,-201.17187,926.26953,16.95122,-2.98780,29.02439,8.40,-90.90,16.20
1.2457279999999855,-464.84375,-169.92187,927.73437,17.19512,-2.31707,30.48780,8.40,-90.90,16.20
1.2484739999999874,-492.18750,-235.35156,916.50391,21.76829,-0.97561,33.23171,8.70,-92.55,16.05
1.2511600000000271,-485.83984,-229.00391,920.89844,21.82927,-0.73171,31.76829,8.70,-92.55,16.05
1.2538460000000669,-478.51562,-245.60547,917.96875,24.32927,0.06098,37.25610,8.70,-92.55,16.05
1.2565920000000688,-489.74609,-258.30078,909.66797,30.12195,-3.96341,36.15854,8.70,-93.75,17.55
1.2592779999999948,-479.98047,-281.73828,904.78516,28.90244,-6.76829,41.64634,8.70,-93.75,17.55
1.2620239999999967,-480.46875,-274.90234,894.04297,32.13415,-3.23171,39.87805,8.70,-93.75,17.55
1.2647100000000364,-471.19141,-275.87891,894.04297,34.45122,-8.23171,42.62195,8.70,-93.75,17.55
1.2674560000000383,-486.32812,-290.03906,894.04297,35.73171,-6.09756,41.28049,9.90,-93.15,16.65
1.270142000000078,-474.12109,-283.20312,868.16406,40.85366,-8.59756,47.13415,9.90,-93.15,16.65
1.2728270000000066,-476.56250,-282.22656,894.04297,42.43903,-8.17073,42.13415,9.90,-93.15,16.65
1.275574000000006,-482.91016,-311.52344,880.37109,44.26829,-11.58537,44.20732,8.85,-92.70,18.45
1.2782600000000457,-491.21094,-332.03125,878.90625,45.12195,-11.34146,46.34146,8.85,-92.70,18.45
1.2810060000000476,-456.54297,-291.01562,866.21094,46.09756,-9.69512,43.90244,8.85,-92.70,18.45
1.283631000000014,-440.91797,-318.84766,868.16406,47.25610,-9.57317,46.70732,8.85,-92.70,18.45
1.2863770000000159,-479.49219,-354.00391,863.76953,50.24390,-11.15854,51.46341,8.85,-92.70,18.45
1.2890630000000556,-448.24219,-330.56641,873.53516,48.65854,-7.68293,50.67073,8.85,-92.70,18.45
1.2918090000000575,-455.56641,-358.39844,865.72266,53.71951,-5.48780,49.51220,8.85,-92.70,18.45
1.2945560000000569,-467.28516,-354.49219,893.06641,56.28049,-6.95122,47.07317,8.85,-92.70,18.45
1.297241999999983,-464.35547,-381.34766,872.55859,58.10976,-5.54878,44.26829,8.85,-92.70,18.45
1.2999270000000251,-465.33203,-417.96875,905.27344,58.59756,-4.57317,50.79268,8.85,-92.70,18.45
1.3026740000000245,-433.59375,-471.19141,898.92578,66.58537,-3.96341,49.69512,8.85,-92.70,18.45
1.3054200000000264,-437.98828,-500.97656,918.94531,68.90244,-2.01220,46.70732,10.80,-92.70,18.45
1.3081060000000662,-431.64062,-590.82031,886.23047,70.24390,1.70732,51.82927,10.80,-92.55,20.40
1.310852000000068,-440.42969,-609.37500,891.60156,74.51219,0.36585,49.45122,10.80,-92.55,20.40
1.3135990000000675,-431.64062,-641.60156,879.39453,77.13415,2.19512,54.26829,10.80,-92.55,20.40
1.3162230000000363,-446.28906,-635.25391,884.76562,79.26830,3.53659,57.07317,11.25,-93.00,22.95
1.3189700000000357,-470.70312,-657.71484,864.74609,85.30488,6.21951,59.51220,11.25,-93.00,22.95
1.3216560000000754,-464.84375,-642.57812,875.48828,88.53658,4.08537,60.48780,11.25,-93.00,22.95
1.3244020000000774,-462.40234,-622.07031,852.05078,90.30488,8.90244,62.13415,11.25,-93.00,22.95
1.3270880000000034,-476.07422,-621.09375,846.67969,96.28049,7.31707,63.23171,11.40,-93.15,23.70
1.3298340000000053,-478.02734,-611.32812,808.10547,97.19512,6.09756,65.85366,11.40,-93.15,23.70
1.3325810000000047,-476.07422,-585.44922,791.01562,99.81707,5.85366,66.15854,11.40,-93.15,23.70
1.335266000000047,-463.37891,-560.05859,759.27734,100.79269,7.68293,65.79269,10.65,-92.40,24.45
1.3379520000000866,-443.35937,-544.43359,734.86328,101.46342,7.43902,66.15854,10.65,-92.40,24.45
1.340699000000086,-462.89062,-518.55469,713.37891,103.96342,5.91463,68.10976,10.65,-92.40,24.45
1.343445000000088,-450.19531,-469.23828,705.07812,101.15854,4.02439,65.42683,10.65,-92.40,24.45
1.346131000000014,-435.54687,-474.12109,697.26562,97.37805,4.26829,65.42683,13.80,-91.80,27.60
1.3488770000000159,-431.64062,-452.63672,690.42969,98.17073,6.09756,63.59756,13.80,-91.80,27.60
1.3515630000000556,-416.99219,-452.14844,683.59375,93.84146,6.09756,62.50000,13.80,-91.80,27.60
1.3542479999999841,-396.48437,-457.03125,686.03516,92.25610,1.03659,60.97561,13.50,-90.45,27.75
1.3569949999999835,-405.27344,-465.33203,678.71094,89.63415,5.24390,62.13415,13.50,-90.45,27.75
1.3596810000000232,-376.95312,-485.35156,694.33594,85.12195,3.59756,60.00000,13.50,-90.45,27.75
1.3624270000000251,-399.90234,-497.55859,683.10547,80.12195,1.89024,59.32927,13.50,-90.45,27.75
1.3651130000000649,-385.25391,-533.20312,686.03516,77.80488,4.14634,56.58537,13.50,-89.70,28.05
1.3678590000000668,-376.95312,-556.64062,668.94531,73.29269,6.28049,56.52439,13.50,-89.70,28.05
1.3705449999999928,-386.23047,-594.23828,696.77734,71.15854,4.45122,56.09756,13.50,-89.70,28.05
1.373230000000035,-416.50391,-625.97656,685.54687,69.57317,5.60976,55.42683,13.50,-89.70,28.05
1.3759160000000747,-415.03906,-634.76562,698.73047,68.10976,6.21951,55.42683,13.20,-90.15,30.60
1.3786010000000033,-395.50781,-655.27344,697.75391,66.89024,9.32927,52.68293,13.20,-90.15,30.60
1.3812260000000833,-425.78125,-676.26953,682.12891,63.65854,9.02439,54.20732,13.20,-90.15,30.60
1.3839110000000119,-387.69531,-684.08203,672.85156,61.15854,8.10976,54.20732,13.20,-90.15,30.60
1.3866580000000113,-421.38672,-710.93750,685.54687,60.73171,12.43902,52.56097,13.20,-90.15,30.60
1.389344000000051,-422.36328,-723.14453,692.87109,61.40244,7.13415,51.34146,13.20,-90.15,30.60
1.392090000000053,-419.43359,-718.26172,687.01172,58.29268,9.63415,54.57317,13.20,-90.15,30.60
1.3948370000000523,-410.64453,-739.74609,687.01172,55.12195,13.78049,54.75610,13.20,-90.15,30.60
1.3975219999999808,-424.31641,-750.48828,692.38281,54.51220,13.29268,53.65854,13.20,-90.15,30.60
1.4002080000000205,-395.01953,-783.20312,688.96484,56.76829,12.98780,52.80488,13.20,-90.15,30.60
1.4029540000000225,-387.20703,-780.27344,707.03125,53.29268,16.21951,53.78049,13.20,-90.15,30.60
1.4056400000000622,-359.37500,-793.45703,683.10547,51.21951,14.51220,57.56097,14.25,-87.00,32.70
1.4084480000000212,-379.88281,-842.77344,676.75781,47.25610,18.47561,56.82927,14.25,-87.00,32.70
1.4111330000000635,-396.48437,-863.28125,675.78125,47.74390,18.35366,61.64634,14.25,-87.00,32.70
1.4138189999999895,-363.28125,-889.64844,661.13281,46.64634,20.91463,61.89024,17.70,-85.80,33.30
1.4165649999999914,-363.76953,-855.95703,669.43359,43.47561,23.17073,63.04878,17.70,-85.80,33.30
1.4192510000000311,-390.62500,-895.50781,649.41406,43.29268,26.64634,68.90244,17.70,-85.80,33.30
1.4219360000000734,-406.73828,-907.71484,659.66797,42.07317,25.12195,70.73170,17.70,-85.80,33.30
1.4246830000000728,-433.59375,-920.89844,654.29687,45.97561,25.97561,75.60976,16.05,-85.20,33.75
1.4274300000000721,-449.21875,-953.61328,650.87891,41.82927,25.24390,80.06097,16.05,-85.20,33.75
1.4301150000000007,-463.86719,-977.05078,628.90625,43.10976,23.65854,83.47561,16.05,-85.20,33.75
1.4328010000000404,-503.90625,-998.04687,620.60547,45.24390,19.57317,85.60976,17.85,-85.20,35.25
1.4355470000000423,-533.20312,-1012.69531,625.00000,45.67073,14.08537,90.12195,17.85,-85.20,35.25
1.438233000000082,-565.91797,-1020.50781,618.16406,46.21951,12.07317,90.79269,17.85,-85.20,35.25
1.440979000000084,-607.42187,-999.02344,611.32812,52.19512,5.18293,94.69512,17.85,-85.20,35.25
1.44366500000001,-625.00000,-984.37500,609.37500,54.81707,0.18293,96.03658,17.40,-84.60,36.90
1.4464110000000119,-626.95312,-977.53906,611.81641,55.73171,-4.87805,95.18293,17.40,-84.60,36.90
1.4491580000000113,-619.62891,-916.01562,604.98047,57.50000,-9.08537,96.15854,17.40,-84.60,36.90
1.451844000000051,-603.51562,-881.34766,591.79687,58.90244,-18.53658,95.54878,17.40,-84.60,36.90
1.454590000000053,-591.79687,-850.09766,594.72656,60.00000,-24.81707,93.84146,19.20,-82.35,35.85
1.457275999999979,-557.61719,-803.71094,576.17187,62.01220,-29.63415,96.76830,19.20,-82.35,35.85
1.4600219999999808,-550.78125,-758.78906,571.28906,61.46341,-34.08537,91.46342,19.20,-82.35,35.85
1.4627689999999802,-497.55859,-716.79687,569.33594,56.70732,-40.18293,89.63415,18.75,-83.10,36.90
1.4655149999999821,-455.56641,-677.24609,568.84766,56.95122,-43.53659,88.71951,18.75,-83.10,36.90
1.4682010000000218,-427.73437,-647.46094,564.45312,55.00000,-43.29268,84.87805,18.75,-83.10,36.90
1.4709480000000212,-380.37109,-627.44141,557.61719,51.15854,-49.39024,82.80488,18.75,-83.10,36.90
1.4736330000000635,-365.23437,-650.87891,560.05859,47.50000,-51.09756,79.39024,18.45,-81.60,38.25
1.4763800000000629,-325.68359,-644.04297,544.92187,42.43903,-51.03659,75.48781,18.45,-81.60,38.25
1.4791260000000648,-301.26953,-677.24609,564.45312,42.68293,-54.08537,70.00000,18.45,-81.60,38.25
1.4818119999999908,-298.33984,-705.56641,559.08203,36.89024,-55.60976,67.68293,18.45,-81.60,38.25
1.4845579999999927,-284.66797,-738.76953,551.26953,35.36585,-51.58537,64.14634,18.45,-81.60,38.25
1.4872440000000324,-267.57812,-762.69531,567.38281,30.79268,-57.25610,61.64634,18.45,-81.60,38.25
1.4899910000000318,-238.76953,-768.55469,568.35937,27.07317,-56.09756,53.17073,18.45,-81.60,38.25
1.4927370000000337,-256.83594,-828.61328,557.12891,25.30488,-52.01220,51.58537,18.45,-81.60,38.25
1.4954840000000331,-226.56250,-857.91016,550.78125,26.89024,-52.31707,50.73171,18.45,-81.60,38.25
1.4981690000000754,-228.51562,-801.75781,546.87500,25.54878,-52.98780,46.82927,18.45,-81.60,38.25
1.5009160000000747,-236.81641,-857.91016,578.61328,23.17073,-49.14634,46.09756,18.45,-81.60,38.25
1.5036620000000767,-239.74609,-869.62891,596.67969,24.45122,-53.47561,43.65854,19.65,-79.80,39.60
1.5063480000000027,-241.21094,-888.18359,565.91797,23.71951,-50.36585,38.10976,19.65,-79.80,39.60
1.509095000000002,-277.34375,-916.50391,578.61328,22.50000,-48.47561,41.34146,19.65,-79.80,39.60
1.5117800000000443,-258.30078,-925.78125,579.58984,25.18293,-50.60976,37.56097,17.70,-80.40,38.70
1.5145270000000437,-292.96875,-927.73437,567.38281,25.42683,-49.75610,33.29268,17.70,-80.40,38.70
1.517212000000086,-306.64062,-966.30859,549.80469,25.97561,-48.23171,32.62195,17.70,-80.40,38.70
1.5199590000000853,-301.26953,-966.30859,551.75781,32.19512,-55.85366,29.26829,17.70,-80.40,38.70
1.5227050000000872,-325.68359,-937.50000,545.89844,27.25610,-49.57317,29.20732,20.25,-79.35,40.05
1.5253910000000133,-368.16406,-930.17578,523.92578,31.82927,-51.89024,27.13415,20.25,-79.35,40.05
1.5281380000000127,-336.91406,-887.20703,524.90234,30.36585,-53.10976,23.71951,20.25,-79.35,40.05
1.530823000000055,-366.69922,-880.85937,504.88281,32.68293,-55.30488,22.92683,18.15,-78.45,39.30
1.5335700000000543,-374.51172,-846.19141,501.95312,32.50000,-54.20732,18.90244,18.15,-78.45,39.30
1.5362549999999828,-384.27734,-809.57031,500.00000,32.01220,-56.40244,20.12195,18.15,-78.45,39.30
1.5389410000000225,-407.71484,-806.15234,483.39844,31.15854,-52.31707,16.58537,18.15,-78.45,39.30
1.5416870000000245,-398.92578,-756.83594,468.75000,31.40244,-56.58537,14.57317,18.60,-78.75,41.40
1.5443730000000642,-399.41406,-775.39062,463.37891,28.65854,-53.71951,15.54878,18.60,-78.75,41.40
1.5470579999999927,-384.27734,-747.55859,437.98828,27.80488,-59.32927,12.56098,18.60,-78.75,41.40
1.549804999999992,-385.74219,-734.86328,440.91797,23.96342,-55.18293,12.50000,18.60,-78.75,41.40
1.5525519999999915,-391.60156,-720.21484,420.89844,20.00000,-57.43903,11.76829,19.95,-78.90,41.55
1.555176000000074,-390.13672,-706.54297,422.85156,19.93902,-58.90244,8.29268,19.95,-78.90,41.55
1.5579230000000734,-371.09375,-702.14844,423.82812,16.09756,-55.18293,10.60976,19.95,-78.90,41.55
1.560608000000002,-391.11328,-702.14844,419.92187,12.74390,-55.91463,10.30488,18.75,-77.40,41.10
1.5632940000000417,-397.46094,-680.66406,418.45703,7.50000,-53.84146,8.04878,18.75,-77.40,41.10
1.5660400000000436,-398.92578,-667.96875,413.08594,6.46341,-50.48780,9.57317,18.75,-77.40,41.10
1.5687260000000833,-375.97656,-677.73437,400.39062,5.18293,-53.17073,9.08537,18.75,-77.40,41.10
1.5714730000000827,-378.90625,-637.69531,412.59766,-2.56098,-54.20732,9.57317,18.15,-78.15,41.10
1.5740970000000516,-382.32422,-650.39062,404.78516,-5.79268,-51.76829,9.26829,18.15,-78.15,41.10
1.576844000000051,-373.53516,-596.67969,408.69141,-11.15854,-56.15854,11.95122,18.15,-78.15,41.10
1.579590000000053,-402.34375,-587.40234,418.94531,-15.67073,-51.15854,10.42683,18.15,-78.15,41.10
1.5821540000000596,-392.57812,-587.40234,418.45703,-18.04878,-55.91463,10.85366,18.15,-78.15,41.10
1.5848389999999881,-402.83203,-562.98828,436.03516,-23.53658,-55.91463,9.87805,18.15,-78.15,41.10
1.5875859999999875,-398.92578,-558.10547,458.49609,-26.95122,-55.00000,9.08537,18.15,-78.15,41.10
1.5902710000000297,-372.07031,-555.66406,457.03125,-28.65854,-57.98780,7.62195,18.15,-78.15,41.10
1.5929570000000695,-389.64844,-526.36719,484.86328,-35.60976,-59.51220,7.68293,18.15,-78.15,41.10
1.5957030000000714,-373.04687,-535.15625,491.69922,-38.65854,-61.58537,5.60976,18.15,-78.15,41.10
1.5984500000000708,-354.98047,-554.68750,520.99609,-42.07317,-62.19512,8.41463,18.15,-78.15,41.10
1.6011359999999968,-351.07422,-519.53125,546.38672,-44.26829,-62.01220,4.08537,16.50,-78.00,40.65
1.603821000000039,-324.70703,-554.68750,580.56641,-48.90244,-61.95122,2.74390,16.50,-78.00,40.65
1.6065680000000384,-312.98828,-547.85156,590.82031,-50.36585,-60.67073,2.07317,16.50,-78.00,40.65
1.6092530000000806,-304.68750,-575.68359,627.44141,-49.57317,-61.40244,1.58537,15.60,-78.15,40.50
1.61200000000008,-304.68750,-616.21094,644.53125,-51.64634,-59.57317,2.50000,15.60,-78.15,40.50
1.6146850000000086,-295.89844,-657.22656,664.06250,-52.13415,-57.01220,0.36585,15.60,-78.15,40.50
1.6173710000000483,-275.87891,-653.80859,682.61719,-49.87805,-53.78049,4.14634,15.60,-78.15,40.50
1.620057000000088,-258.78906,-690.91797,701.17187,-47.50000,-50.48780,1.28049,16.80,-78.00,39.60
1.6228029999999762,-257.81250,-712.89062,719.23828,-47.31707,-49.87805,0.12195,16.80,-78.00,39.60
1.6255499999999756,-252.92969,-706.05469,721.67969,-43.23171,-45.97561,1.52439,16.80,-78.00,39.60
1.6282350000000179,-257.81250,-720.70312,733.39844,-38.84146,-45.36585,-0.48780,16.80,-78.00,39.60
1.6309210000000576,-225.58594,-731.93359,755.85937,-35.18293,-37.98780,2.92683,16.05,-78.30,40.65
1.6336670000000595,-236.32812,-740.72266,764.64844,-32.50000,-35.60976,-0.79268,16.05,-78.30,40.65
1.6364140000000589,-215.33203,-741.69922,750.48828,-24.93902,-30.91463,3.53659,16.05,-78.30,40.65
1.6391610000000583,-215.33203,-728.02734,758.78906,-25.00000,-30.60976,2.50000,16.80,-77.55,40.20
1.6418459999999868,-247.55859,-717.28516,761.71875,-23.04878,-20.54878,3.04878,16.80,-77.55,40.20
1.6445929999999862,-252.44141,-688.47656,757.81250,-19.45122,-18.10976,2.92683,16.80,-77.55,40.20
1.6472780000000284,-267.08984,-658.20312,741.21094,-16.03658,-15.12195,1.28049,16.80,-77.55,40.20
1.6500250000000278,-274.41406,-630.37109,729.49219,-16.46342,-11.70732,-1.64634,14.70,-79.05,40.95
1.6527710000000297,-300.78125,-599.60937,722.16797,-15.42683,-8.35366,-2.86585,14.70,-79.05,40.95
1.6555180000000291,-325.68359,-576.17187,710.44922,-13.65854,-7.98780,-2.43902,14.70,-79.05,40.95
1.6582030000000714,-334.47266,-566.40625,687.98828,-14.26829,-5.73171,-4.51220,14.70,-77.25,40.95
1.6609500000000708,-354.98047,-557.61719,676.75781,-14.32927,-2.19512,-7.98780,14.70,-77.25,40.95
1.6636970000000701,-358.39844,-534.17969,656.73828,-13.84146,-2.31707,-7.43902,14.70,-77.25,40.95
1.666443000000072,-387.69531,-531.25000,653.80859,-15.06098,-1.95122,-11.34146,14.70,-77.25,40.95
1.669128999999998,-390.62500,-524.90234,639.16016,-15.36585,-0.48780,-11.64634,14.70,-77.25,40.95
1.6717530000000806,-392.08984,-514.64844,647.46094,-16.40244,-0.91463,-12.25610,14.70,-77.25,40.95
1.6744390000000067,-396.48437,-519.53125,647.46094,-15.85366,2.56098,-14.32927,14.70,-77.25,40.95
1.677124000000049,-391.60156,-518.06641,641.60156,-18.47561,0.97561,-16.34146,14.70,-77.25,40.95
1.6798710000000483,-403.80859,-522.46094,642.08984,-19.81707,0.73171,-14.81707,14.70,-77.25,40.95
1.682557000000088,-405.27344,-521.48437,643.55469,-21.34146,3.23171,-18.71951,14.70,-77.25,40.95
1.6853029999999762,-399.41406,-522.94922,642.08984,-20.24390,5.36585,-17.68293,14.70,-77.25,40.95
1.6880499999999756,-389.64844,-531.73828,657.22656,-21.64634,5.42683,-18.65854,14.70,-77.25,40.95
1.6907350000000179,-382.81250,-536.62109,644.04297,-22.98780,5.30488,-18.47561,14.70,-77.25,40.95
1.6934820000000173,-381.83594,-547.36328,643.55469,-24.81707,7.98780,-16.70732,14.70,-77.25,40.95
1.6961670000000595,-393.55469,-554.19922,664.06250,-23.84146,8.04878,-19.45122,14.70,-77.25,40.95
1.6989140000000589,-402.83203,-575.68359,680.17578,-22.43902,15.12195,-20.00000,13.95,-77.25,40.95
1.7016610000000583,-392.57812,-604.98047,688.47656,-21.46342,15.42683,-20.24390,13.95,-77.25,40.95
1.7044070000000602,-401.36719,-629.88281,704.58984,-20.85366,16.95122,-19.87805,13.95,-77.25,40.95
1.7070929999999862,-401.36719,-687.98828,715.82031,-18.65854,21.58537,-17.80488,15.30,-76.80,42.45
1.7097780000000284,-434.08203,-700.68359,728.51562,-14.87805,27.56098,-19.75610,15.30,-76.80,42.45
1.7125250000000278,-430.66406,-740.72266,720.70312,-12.98780,27.50000,-19.20732,15.30,-76.80,42.45
1.71521000000007,-415.52734,-752.44141,713.86719,-9.57317,30.48780,-18.17073,15.30,-76.80,42.45
1.717895999999996,-434.57031,-745.60547,717.28516,-7.74390,33.47561,-20.18293,15.00,-77.25,40.65
1.720641999999998,-418.45703,-713.86719,718.75000,-0.36585,38.41463,-20.00000,15.00,-77.25,40.65
1.7233280000000377,-397.94922,-698.73047,693.84766,-2.68293,40.18293,-15.97561,15.00,-77.25,40.65
1.726075000000037,-411.13281,-648.92578,670.41016,-0.30488,41.89024,-15.79268,15.00,-77.25,40.65
1.7287600000000793,-429.68750,-592.28516,655.27344,-0.06098,48.84146,-17.37805,13.05,-76.65,40.50
1.7315070000000787,-439.45312,-522.46094,659.66797,2.19512,47.92683,-17.68293,13.05,-76.65,40.50
1.7341310000000476,-457.51953,-462.89062,661.13281,1.03659,50.60976,-21.82927,13.05,-76.65,40.50
1.7368170000000873,-456.54297,-422.85156,647.94922,-0.85366,53.96341,-22.80488,14.25,-77.25,39.90
1.7395630000000892,-446.77734,-398.92578,633.78906,-2.68293,58.84146,-28.29268,14.25,-77.25,39.90
1.7422490000000153,-474.12109,-380.37109,640.62500,-4.57317,58.41463,-34.14634,14.25,-77.25,39.90
1.7449950000000172,-471.19141,-374.51172,633.78906,-4.26829,66.40244,-34.20732,14.25,-77.25,39.90
1.7477420000000166,-492.18750,-405.27344,620.11719,-6.21951,68.59756,-40.97561,15.15,-78.15,40.05
1.750489000000016,-502.44141,-416.01562,610.35156,-5.00000,76.34146,-40.67073,15.15,-78.15,40.05
1.7531740000000582,-512.69531,-464.35547,589.84375,-6.82927,77.31707,-40.97561,15.15,-78.15,40.05
1.7557990000000245,-527.83203,-488.28125,602.05078,-5.67073,78.78049,-44.75610,15.15,-76.95,40.80
1.7584840000000668,-548.33984,-524.90234,595.21484,-6.95122,87.31707,-47.86585,15.15,-76.95,40.80
1.7611699999999928,-553.71094,-577.63672,576.66016,-5.91463,87.43903,-48.78049,15.15,-76.95,40.80
1.763855000000035,-553.22266,-601.07422,559.57031,-5.54878,90.79269,-47.92683,15.15,-76.95,40.80
1.7666020000000344,-572.75391,-631.34766,569.33594,-0.97561,90.30488,-48.53659,15.15,-76.95,40.80
1.7692870000000767,-569.33594,-648.92578,551.75781,1.09756,93.84146,-46.58537,15.15,-76.95,40.80
1.7719730000000027,-583.98437,-649.90234,538.08594,2.25610,96.89024,-44.26829,15.15,-76.95,40.80
1.7746590000000424,-610.83984,-621.09375,523.43750,3.41463,97.07317,-44.08537,15.15,-76.95,40.80
1.7773440000000846,-605.95703,-614.25781,519.53125,5.67073,96.15854,-42.80488,15.15,-76.95,40.80
1.7800300000000107,-610.83984,-602.53906,510.25391,10.30488,95.79269,-39.08537,15.15,-76.95,40.80
1.7827760000000126,-599.12109,-585.44922,501.95312,8.29268,92.92683,-38.47561,15.15,-76.95,40.80
1.785523000000012,-607.91016,-568.84766,497.07031,10.79268,94.81707,-36.34146,15.15,-76.95,40.80
1.7881469999999808,-591.79687,-567.87109,473.63281,10.91463,93.59756,-34.81707,15.15,-76.95,40.80
1.7908939999999802,-590.33203,-553.22266,492.18750,8.90244,90.12195,-34.08537,15.15,-76.95,40.80
1.7936399999999821,-577.63672,-559.08203,480.95703,7.01220,89.57317,-31.52439,15.15,-76.95,40.80
1.7963260000000218,-589.35547,-563.96484,474.60937,6.15854,88.96342,-31.40244,14.10,-76.95,40.05
1.7990730000000212,-590.33203,-562.98828,453.61328,2.86585,87.37805,-27.43902,14.10,-76.95,40.05
1.8018190000000232,-591.79687,-548.33984,454.10156,0.67073,83.71951,-25.06098,14.10,-76.95,40.05
1.8045050000000629,-632.32422,-555.17578,416.01562,-2.31707,77.13415,-25.73171,14.10,-76.95,40.05
1.8071290000000317,-1691.89453,-97.65625,1761.23047,-26.21951,-71.40244,-38.17073,14.85,-77.70,40.05
1.809753999999998,-1519.53125,-794.92187,1920.89844,-56.03659,-52.01220,-56.76829,14.85,-77.70,40.05
1.8125,-1747.55859,-1080.56641,1665.03906,-50.97561,-15.54878,-45.67073,14.85,-77.70,40.05
1.8152469999999994,-773.92578,168.45703,1528.32031,-37.92683,36.03659,-41.64634,13.50,-76.50,37.35
1.8179939999999988,-414.55078,736.81641,1560.05859,11.52439,-8.10976,-54.08537,13.50,-76.50,37.35
1.8207400000000007,-295.41016,817.87109,1585.44922,17.25610,-36.95122,-95.60976,13.50,-76.50,37.35
1.8234260000000404,-233.39844,-269.53125,1404.78516,-21.64634,-3.90244,-108.71951,13.50,-76.50,37.35
1.8261720000000423,-231.44531,-176.26953,1025.87891,-81.82927,-12.07317,-105.42683,13.50,-76.05,36.75
1.8289190000000417,-523.92578,182.12891,687.50000,-118.71951,6.46341,-91.82927,13.50,-76.05,36.75
1.8316650000000436,-652.83203,187.01172,544.92187,-120.85366,23.53658,-45.42683,13.50,-76.05,36.75
1.8343510000000833,-551.26953,-191.40625,381.83594,-97.13415,22.62195,-2.13415,12.30,-76.20,35.85
1.8370980000000827,-672.36328,-383.78906,617.67578,-77.50000,22.01220,-1.52439,12.30,-76.20,35.85
1.8398440000000846,-549.80469,-598.63281,728.02734,-77.98781,27.98780,-10.73171,12.30,-76.20,35.85
1.842591000000084,-559.08203,-843.75000,799.31641,-87.19512,21.70732,-22.01220,12.30,-76.20,35.85
1.8452760000000126,-608.88672,-970.21484,795.89844,-93.78049,17.31707,-21.40244,11.25,-77.70,37.95
1.848023000000012,-677.24609,-1051.75781,756.34766,-86.95122,18.65854,-13.90244,11.25,-77.70,37.95
1.8507690000000139,-740.72266,-1041.01563,723.63281,-84.93903,14.32927,-11.70732,11.25,-77.70,37.95
1.8534550000000536,-713.37891,-989.74609,703.12500,-85.42683,10.54878,-6.76829,11.55,-77.40,37.65
1.856202000000053,-690.91797,-888.67187,654.78516,-82.98781,12.92683,-2.86585,11.55,-77.40,37.65
1.858948000000055,-640.62500,-780.27344,581.05469,-76.64634,9.93902,-4.08537,11.55,-77.40,37.65
1.8616950000000543,-609.37500,-694.33594,567.87109,-71.52439,6.15854,-1.70732,11.55,-77.40,37.65
1.8644410000000562,-624.51172,-622.07031,594.72656,-71.89024,5.60976,-3.71951,11.55,-77.40,37.65
1.8671269999999822,-628.90625,-588.86719,622.55859,-70.67073,-0.36585,-0.60976,11.55,-77.40,37.65
1.8698120000000245,-646.97266,-570.80078,666.01562,-72.31707,-1.40244,-3.41463,11.55,-77.40,37.65
1.8725590000000238,-639.16016,-586.42578,707.03125,-74.63415,-0.36585,-3.41463,11.55,-77.40,37.65
1.875244000000066,-638.18359,-593.26172,753.41797,-73.35366,-4.51220,-2.01220,11.55,-77.40,37.65
1.8779910000000655,-645.99609,-598.63281,765.13672,-69.20731,-9.51220,-1.95122,11.55,-77.40,37.65
1.8806769999999915,-575.19531,-601.56250,791.01562,-66.82927,-7.56098,-2.19512,11.55,-77.40,37.65
1.8834229999999934,-547.36328,-599.60937,762.20703,-65.73170,-9.51220,-10.12195,11.55,-77.40,37.65
1.8861090000000331,-489.25781,-583.00781,744.14062,-68.35366,-8.47561,-3.29268,11.55,-77.40,37.65
1.888855000000035,-448.24219,-577.63672,739.25781,-71.21951,-7.62195,-10.00000,11.55,-77.40,37.65
1.8916020000000344,-429.68750,-589.35547,716.30859,-69.20731,-13.29268,-5.73171,11.55,-77.40,37.65
1.8942870000000767,-427.73437,-576.17187,708.00781,-71.28049,-7.37805,-11.76829,11.85,-81.15,34.35
1.897034000000076,-397.94922,-584.96094,708.49609,-73.23170,-7.13415,-6.15854,11.85,-81.15,34.35
1.8997810000000754,-394.04297,-605.95703,716.30859,-70.97561,-5.97561,-4.02439,11.85,-81.15,34.35
1.902588000000037,-401.36719,-613.76953,711.91406,-70.79269,-6.09756,-8.65854,11.85,-81.15,34.35
1.9052740000000767,-390.13672,-619.14062,719.72656,-67.68293,-3.35366,0.36585,11.85,-80.40,35.40
1.9080200000000787,-383.30078,-645.99609,723.14453,-68.41463,-8.53659,-9.02439,11.85,-80.40,35.40
1.910767000000078,-383.78906,-671.87500,728.02734,-65.97561,-1.70732,-11.09756,11.85,-80.40,35.40
1.913575000000037,-395.99609,-663.08594,738.76953,-67.07317,-5.00000,-5.42683,11.70,-81.75,34.50
1.9162600000000793,-396.97266,-661.62109,730.46875,-64.51219,-0.73171,-8.90244,11.70,-81.75,34.50
1.9190070000000787,-406.73828,-659.66797,744.14062,-60.54878,-1.03659,-10.36585,11.70,-81.75,34.50
1.9217530000000806,-408.20312,-654.29687,752.92969,-59.69512,0.24390,-9.26829,11.70,-81.75,34.50
1.92450000000008,-405.27344,-646.48437,747.07031,-55.18293,0.42683,-13.10976,11.55,-82.35,35.10
1.9271850000000086,-395.50781,-646.48437,745.11719,-51.28049,0.85366,-16.03658,11.55,-82.35,35.10
1.929932000000008,-388.67187,-645.50781,746.58203,-51.09756,0.18293,-21.15854,11.55,-82.35,35.10
1.9326790000000074,-387.20703,-611.32812,756.83594,-47.13415,-2.68293,-24.02439,11.70,-80.55,34.50
1.9354250000000093,-387.69531,-611.32812,774.90234,-44.45122,-1.21951,-29.26829,11.70,-80.55,34.50
1.938111000000049,-369.14062,-612.79297,786.13281,-40.18293,0.24390,-33.71951,11.70,-80.55,34.50
1.940857000000051,-377.44141,-640.13672,788.08594,-35.97561,1.15854,-37.98780,11.70,-80.55,34.50
1.94366500000001,-378.90625,-654.29687,781.73828,-31.58537,-2.01220,-39.39024,11.25,-81.60,35.85
1.9464110000000119,-349.60937,-662.10937,767.08984,-29.51220,1.46341,-46.70732,11.25,-81.60,35.85
1.9490970000000516,-324.21875,-686.03516,762.69531,-27.86585,0.48780,-48.17073,11.25,-81.60,35.85
1.951844000000051,-315.91797,-682.61719,754.39453,-24.14634,0.73171,-50.60976,11.85,-81.60,35.10
1.954590000000053,-327.14844,-661.62109,749.02344,-22.68293,2.07317,-52.74390,11.85,-81.60,35.10
1.957275999999979,-306.15234,-642.08984,743.16406,-19.63415,2.19512,-56.64634,11.85,-81.60,35.10
1.9600219999999808,-319.82422,-630.85937,752.44141,-20.67073,0.54878,-55.18293,11.85,-81.60,35.10
1.9627689999999802,-345.70312,-609.86328,750.48828,-20.30488,6.15854,-57.19512,11.85,-81.60,35.10
1.965577000000053,-356.93359,-619.62891,756.83594,-18.90244,4.69512,-58.41463,11.85,-81.60,35.10
1.9682619999999815,-365.72266,-647.46094,756.34766,-21.52439,4.87805,-59.20732,11.85,-81.60,35.10
1.971008999999981,-379.88281,-642.57812,752.44141,-16.64634,7.19512,-56.34146,11.85,-81.60,35.10
1.9737549999999828,-374.51172,-650.87891,734.86328,-18.78049,7.01220,-58.65854,11.85,-81.60,35.10
1.9765019999999822,-363.76953,-667.96875,710.93750,-20.67073,5.60976,-55.85366,11.85,-81.60,35.10
1.9791870000000245,-384.27734,-654.29687,698.73047,-18.35366,5.18293,-55.00000,11.85,-81.60,35.10
1.9819340000000238,-402.34375,-629.88281,690.42969,-19.75610,6.15854,-54.02439,11.85,-81.60,35.10
1.9846810000000232,-399.90234,-591.79687,723.14453,-22.13415,4.93902,-57.50000,11.85,-81.60,35.10
1.9874270000000251,-354.00391,-514.64844,771.48437,-21.76829,9.32927,-58.90244,11.85,-81.60,35.10
1.9901740000000245,-334.47266,-675.78125,740.23437,-19.63415,10.60976,-60.67073,11.85,-81.60,35.10
1.9929200000000264,-187.50000,-721.19141,725.09766,-20.85366,14.69512,-58.47561,8.40,-82.20,33.45
1.9956670000000258,-175.29297,-671.38672,696.77734,-23.04878,13.53659,-54.02439,8.40,-82.20,33.45
1.998352000000068,-267.57812,-593.26172,711.91406,-22.07317,11.28049,-58.35366,8.40,-82.20,33.45
2.0010990000000675,-314.94141,-568.35937,712.89062,-20.12195,14.39024,-60.06097,8.40,-81.00,33.45
2.003846000000067,-248.53516,-604.49219,765.13672,-18.84146,17.74390,-67.74390,8.40,-81.00,33.45
2.0065309999999954,-164.06250,-608.88672,812.01172,-18.90244,19.45122,-73.35366,8.40,-81.00,33.45
2.009217000000035,-108.39844,-630.37109,838.37891,-19.26829,22.19512,-73.78049,8.40,-81.00,33.45
2.011963000000037,-82.51953,-625.48828,850.09766,-18.10976,25.36585,-78.78049,7.50,-80.40,33.60
2.0147100000000364,-85.44922,-640.13672,847.16797,-13.84146,27.92683,-82.01219,7.50,-80.40,33.60
2.0174560000000383,-87.89063,-653.80859,829.10156,-13.53659,33.35366,-83.35366,7.50,-80.40,33.60
2.020142000000078,-78.61328,-670.41016,824.70703,-7.07317,32.13415,-86.95122,7.35,-81.00,33.60
2.022950000000037,-4.39453,-693.35937,843.26172,-7.37805,39.14634,-89.20731,7.35,-81.00,34.20
2.025696000000039,-24.41406,-671.87500,845.21484,-5.48780,46.58537,-92.31707,7.35,-81.00,34.20
2.0284430000000384,-29.29688,-655.76172,833.98437,-3.17073,48.23171,-94.63415,7.35,-81.00,34.20
2.0311280000000806,-49.31641,-636.23047,844.72656,-3.29268,53.29268,-96.46342,5.40,-81.15,33.30
2.03387500000008,-82.03125,-638.18359,833.49609,-2.37805,56.46341,-96.09756,5.40,-81.15,33.30
2.036621000000082,-93.75000,-617.18750,812.98828,-2.86585,60.42683,-94.20731,5.40,-81.15,33.30
2.0393680000000813,-110.35156,-608.39844,811.52344,0.30488,63.71951,-97.31707,5.40,-81.15,33.30
2.0420540000000074,-126.46484,-601.07422,788.08594,-0.67073,69.81707,-96.15854,6.30,-78.75,33.15
2.0448000000000093,-178.22266,-588.86719,748.04687,-5.06098,72.25610,-101.21951,6.30,-78.75,33.15
2.047608000000082,-216.30859,-587.89062,717.28516,-2.80488,75.24390,-95.12195,6.30,-78.75,33.15
2.0502930000000106,-245.11719,-606.44531,692.87109,-5.36585,79.57317,-94.81707,7.05,-81.30,32.70
2.05304000000001,-279.78516,-609.86328,674.80469,-6.64634,82.31707,-95.97561,7.05,-81.30,32.70
2.055786000000012,-306.15234,-623.53516,637.20703,-11.40244,85.67073,-90.85366,7.05,-81.30,32.70
2.0585330000000113,-391.11328,-659.17969,642.57812,-11.34146,88.41463,-87.92683,7.05,-81.30,32.70
2.061219000000051,-437.50000,-675.78125,625.00000,-14.93902,89.69512,-86.21951,7.05,-81.30,32.70
2.063965000000053,-485.83984,-679.68750,598.14453,-16.70732,86.28049,-83.41463,7.05,-81.30,32.70
2.0667120000000523,-536.62109,-689.94141,562.01172,-15.73171,92.98781,-79.69512,7.05,-81.30,32.70
2.069458000000054,-581.05469,-705.56641,540.52734,-17.56098,92.92683,-76.09756,7.05,-81.30,32.70
2.0721439999999802,-609.86328,-731.93359,500.00000,-20.42683,94.81707,-73.29269,7.05,-81.30,32.70
2.074889999999982,-663.08594,-706.54297,511.71875,-19.81707,97.92683,-64.69512,7.05,-81.30,32.70
2.0776369999999815,-713.37891,-735.83984,490.72266,-23.17073,100.85366,-57.01220,7.05,-81.30,32.70
2.080383999999981,-779.29687,-728.02734,464.84375,-24.63415,100.00000,-54.81707,7.05,-81.30,32.70
2.083069000000023,-863.28125,-928.71094,402.34375,-29.45122,102.37805,-46.89024,7.05,-81.30,32.70
2.0858160000000225,-876.95312,-909.17969,243.65234,-27.98780,100.24390,-37.13415,7.05,-81.30,32.70
2.088622999999984,-1092.28516,-786.62109,163.08594,-31.15854,89.75610,-26.21951,7.05,-81.30,32.70
2.091309000000024,-2197.75391,-2046.87500,416.01562,-19.75610,75.79269,11.28049,6.90,-80.85,34.35
2.0940560000000232,-2341.79687,-1441.40625,-47.36328,-21.95122,57.31707,28.29268,6.90,-80.85,34.35
2.096802000000025,-2178.71094,-508.30078,-129.39453,-30.54878,53.96341,30.85366,6.90,-80.85,34.35
2.0995490000000245,-1328.61328,-58.10547,-26.36719,-35.42683,66.40244,31.40244,5.70,-79.35,32.55
2.1022340000000668,-831.05469,-472.16797,461.42578,-39.39024,55.18293,33.65854,5.70,-79.35,32.55
2.104981000000066,-641.60156,-806.64062,986.32812,-37.92683,42.43903,14.87805,5.70,-79.35,32.55
2.107727000000068,32.71484,-1110.83984,1122.07031,-34.57317,40.06097,7.74390,5.70,-79.35,32.55
2.1104740000000675,332.51953,-1087.89063,896.48437,-32.56097,31.95122,6.03659,7.20,-78.90,34.05
2.1131599999999935,183.59375,-1153.80859,767.57812,-30.79268,32.25610,0.79268,7.20,-78.90,34.05
2.1158450000000357,-142.08984,-1080.56641,624.51172,-30.24390,29.75610,8.04878,7.20,-78.90,34.05
2.118592000000035,-437.01172,-965.33203,614.25781,-26.15854,35.67073,12.74390,7.20,-80.10,32.85
2.1212770000000774,-491.21094,-883.78906,673.33984,-22.80488,37.68293,16.46342,7.20,-80.10,32.85
2.1239630000000034,-517.08984,-802.24609,727.05078,-24.02439,41.64634,14.63415,7.20,-80.10,32.85
2.1267090000000053,-505.85937,-743.65234,724.60937,-25.60976,42.74390,10.42683,7.20,-80.10,32.85
2.1294560000000047,-446.77734,-748.53516,736.81641,-18.35366,40.79268,20.36585,7.50,-80.85,34.35
2.132141000000047,-424.31641,-770.50781,703.12500,-22.86585,38.35366,7.98780,7.50,-80.85,34.35
2.1348880000000463,-418.45703,-773.92578,657.71484,-18.17073,33.96341,12.07317,7.50,-80.85,34.35
2.1376350000000457,-419.92187,-794.92187,626.46484,-20.85366,37.56097,18.23171,7.80,-80.25,31.65
2.1403810000000476,-443.84766,-752.92969,625.48828,-25.30488,37.62195,9.14634,7.80,-80.25,31.65
2.1430670000000873,-468.26172,-756.34766,629.39453,-14.32927,36.34146,17.13415,7.80,-80.25,31.65
2.1458130000000892,-444.33594,-727.05078,601.56250,-17.62195,33.96341,15.79268,7.80,-80.25,31.65
2.1485600000000886,-463.37891,-702.14844,629.39453,-15.06098,36.95122,7.68293,7.50,-80.10,30.75
2.151245000000017,-448.73047,-685.54687,645.99609,-11.15854,35.54878,16.40244,7.50,-80.10,30.75
2.153931000000057,-427.73437,-676.75781,637.69531,-13.65854,36.52439,14.20732,7.50,-80.10,30.75
2.1566780000000563,-410.64453,-701.66016,650.39062,-12.31707,36.52439,13.35366,7.50,-80.10,30.75
2.159424000000058,-423.82812,-716.30859,609.37500,-13.53659,33.96341,8.84146,9.60,-79.80,33.75
2.162109999999984,-456.54297,-700.19531,610.83984,-6.82927,33.53659,15.91463,9.60,-79.80,33.75
2.164855999999986,-452.63672,-690.42969,582.03125,-8.78049,34.81707,10.79268,9.60,-79.80,33.75
2.1676029999999855,-476.07422,-730.46875,581.54297,-6.89024,34.63415,8.78049,9.60,-79.80,33.75
2.170227000000068,-478.51562,-698.73047,587.40234,-8.59756,30.60976,10.97561,9.60,-79.80,33.75
2.1729740000000675,-499.02344,-726.56250,572.26562,-5.73171,36.21951,9.14634,9.60,-79.80,33.75
2.175721000000067,-464.35547,-718.75000,596.67969,-5.24390,31.70732,13.41463,9.60,-79.80,33.75
2.1784670000000688,-467.28516,-736.32812,610.83984,-4.81707,31.21951,10.60976,9.60,-79.80,33.75
2.181152999999995,-457.51953,-706.05469,612.30469,-5.12195,30.73171,13.23171,9.60,-79.80,33.75
2.1838989999999967,-454.10156,-716.30859,607.91016,-1.82927,29.32927,14.39024,9.60,-79.80,33.75
2.186645999999996,-484.37500,-717.28516,598.14453,-3.78049,29.81707,8.90244,9.60,-79.80,33.75
2.1893310000000383,-469.72656,-714.35547,621.58203,-3.35366,30.06098,12.68293,10.65,-79.50,34.50
2.1920780000000377,-481.44531,-718.26172,610.35156,-1.89024,25.85366,11.21951,10.65,-79.50,34.50
2.1947640000000774,-498.04687,-723.63281,597.16797,-3.84146,27.98780,11.09756,10.65,-79.50,34.50
2.1975100000000793,-520.01953,-706.05469,589.35547,0.54878,27.50000,15.79268,10.35,-80.55,34.20
2.2001960000000054,-557.12891,-698.73047,584.47266,-4.08537,23.84146,7.86585,10.35,-80.55,34.20
2.2029420000000073,-527.34375,-703.12500,575.68359,1.95122,24.51220,14.02439,10.35,-80.55,34.20
2.2056890000000067,-521.97266,-711.42578,572.75391,-2.25610,23.35366,8.47561,10.35,-80.55,34.20
2.208374000000049,-482.42187,-719.23828,601.56250,1.95122,19.93902,14.20732,10.05,-79.35,35.85
2.2111210000000483,-456.54297,-723.14453,592.28516,-1.46341,22.01220,12.19512,10.05,-79.35,35.85
2.213807000000088,-460.44922,-736.32812,589.35547,-1.40244,22.80488,12.19512,10.05,-79.35,35.85
2.2166140000000496,-474.60937,-700.19531,592.77344,-0.30488,18.35366,13.35366,10.65,-80.55,36.30
2.2192999999999756,-490.23437,-703.61328,589.84375,-1.52439,20.48780,13.23171,10.65,-80.55,36.30
2.2220459999999775,-499.02344,-696.28906,590.82031,-0.42683,18.10976,12.25610,10.65,-80.55,36.30
2.2247320000000173,-498.53516,-678.22266,603.02734,1.95122,19.45122,14.20732,10.65,-80.55,36.30
2.2274170000000595,-500.97656,-692.38281,613.76953,0.60976,20.06098,10.79268,11.55,-81.60,35.40
2.230164000000059,-502.44141,-705.56641,582.51953,-1.89024,20.18293,14.69512,11.55,-81.60,35.40
2.2328489999999874,-509.27734,-707.51953,595.70312,-1.28049,17.13415,12.86585,11.55,-81.60,35.40
2.235595999999987,-500.00000,-705.07812,587.40234,1.03659,18.96342,15.91463,12.30,-82.65,38.25
2.2382820000000265,-481.93359,-696.28906,593.26172,-1.40244,16.95122,11.28049,12.30,-82.65,38.25
2.2410280000000284,-483.88672,-700.68359,576.17187,2.01220,17.50000,13.90244,12.30,-82.65,38.25
2.243775000000028,-506.34766,-685.54687,574.21875,-0.30488,18.17073,17.19512,12.30,-82.65,38.25
2.2465210000000297,-495.11719,-675.29297,580.07812,0.73171,16.40244,14.14634,11.85,-81.60,37.95
2.249145999999996,-517.08984,-677.73437,571.77734,-0.30488,17.92683,11.70732,11.85,-81.60,37.95
2.251891999999998,-542.96875,-677.24609,570.80078,-6.95122,19.08537,9.93902,11.85,-81.60,37.95
2.2546389999999974,-532.22656,-670.41016,568.35937,1.64634,16.95122,13.47561,11.85,-81.60,37.95
2.257385999999997,-527.83203,-678.22266,572.26562,-0.42683,16.28049,11.40244,11.85,-80.40,37.65
2.260071000000039,-531.25000,-680.66406,553.71094,-1.03659,16.34146,7.25610,11.85,-80.40,37.65
2.2628180000000384,-523.92578,-666.01562,538.08594,1.76829,15.06098,13.84146,11.85,-80.40,37.65
2.2655640000000403,-533.69141,-649.41406,562.98828,0.97561,16.40244,10.24390,11.85,-80.40,37.65
2.26825000000008,-535.15625,-649.41406,563.96484,-2.13415,14.32927,10.97561,11.85,-80.40,37.65
2.270996000000082,-549.80469,-642.08984,557.61719,-1.46341,17.56098,12.92683,11.85,-80.40,37.65
2.2737430000000813,-552.24609,-652.83203,561.52344,-0.30488,17.13415,11.34146,11.85,-80.40,37.65
2.2813110000000734,-525.87891,-657.22656,566.40625,2.56098,11.70732,10.36585,11.85,-80.40,37.65
2.2840580000000728,-522.46094,-673.82812,564.45312,1.64634,16.46342,8.59756,11.85,-80.40,37.65
2.2867439999999988,-536.62109,-671.87500,576.17187,3.53659,15.18293,9.75610,13.50,-81.75,38.85
2.2894900000000007,-535.64453,-672.85156,580.56641,2.56098,15.24390,8.23171,13.50,-81.75,38.85
2.2921760000000404,-514.64844,-652.34375,581.05469,3.90244,13.78049,12.01220,13.50,-81.75,38.85
2.2949220000000423,-504.88281,-640.13672,553.71094,-0.30488,11.95122,8.71951,13.05,-81.60,40.80
2.297608000000082,-512.69531,-661.13281,554.19922,2.13415,14.20732,12.50000,13.05,-81.60,40.80
2.3002930000000106,-523.43750,-654.78516,566.40625,-0.30488,14.93902,6.46341,13.05,-81.60,40.80
2.3029790000000503,-528.80859,-640.62500,566.89453,2.50000,12.80488,8.65854,13.05,-81.60,40.80
2.305725000000052,-522.46094,-651.85547,572.26562,0.18293,15.79268,10.97561,14.25,-81.30,40.95
2.3084109999999782,-535.15625,-657.71484,564.45312,-0.36585,15.67073,5.67073,14.25,-81.30,40.95
2.311097000000018,-523.43750,-650.39062,541.99219,0.06098,11.95122,9.08537,14.25,-81.30,40.95
2.31378200000006,-533.20312,-652.83203,540.52734,-0.36585,15.06098,6.64634,14.25,-81.30,40.95
2.3165290000000596,-555.17578,-641.11328,526.85547,-0.79268,11.21951,7.98780,13.80,-81.90,40.80
2.319213999999988,-553.22266,-646.48437,522.94922,-2.56098,15.24390,8.04878,13.80,-81.90,40.80
2.321900000000028,-560.54687,-632.81250,524.90234,-1.70732,12.74390,5.06098,13.80,-81.90,40.80
2.3246460000000297,-571.28906,-651.85547,525.39062,0.00000,10.12195,3.71951,14.40,-80.40,40.50
2.3273320000000695,-571.28906,-643.06641,523.92578,-1.09756,10.97561,5.91463,14.40,-80.40,40.50
2.3300780000000714,-574.70703,-651.85547,520.99609,-2.07317,10.12195,1.09756,14.40,-80.40,40.50
2.3328250000000708,-567.87109,-640.62500,515.62500,-0.42683,12.86585,4.02439,14.40,-80.40,40.50
2.335510999999997,-557.12891,-650.39062,520.01953,-0.06098,10.60976,3.23171,13.35,-81.15,40.80
2.338196000000039,-539.06250,-653.80859,528.80859,-2.86585,10.24390,2.86585,13.35,-81.15,40.80
2.3408820000000787,-547.85156,-661.13281,530.27344,0.18293,7.31707,3.53659,13.35,-81.15,40.80
2.3436280000000806,-557.61719,-651.36719,530.27344,1.15854,12.56098,-0.30488,15.60,-82.65,42.90
2.3463140000000067,-556.64062,-673.33984,543.45703,0.60976,10.24390,1.64634,15.60,-82.65,42.90
2.348999000000049,-545.41016,-653.32031,549.31641,0.42683,10.54878,1.58537,15.60,-82.65,42.90
2.3517460000000483,-540.52734,-659.66797,539.55078,-1.34146,5.54878,0.85366,15.60,-82.65,42.90
2.354432000000088,-545.41016,-655.27344,558.10547,-0.24390,5.85366,3.17073,13.35,-81.15,42.90
2.3571170000000166,-559.57031,-653.80859,545.41016,-0.30488,6.89024,-0.91463,13.35,-81.15,42.90
2.359864000000016,-562.01172,-654.78516,559.57031,0.54878,8.10976,1.46341,13.35,-81.15,42.90
2.362549000000058,-566.89453,-664.55078,550.29297,2.50000,8.29268,2.25610,13.35,-81.15,42.90
2.3651740000000245,-554.19922,-670.41016,543.45703,1.70732,6.46341,-0.24390,13.35,-81.15,42.90
2.3678590000000668,-566.89453,-650.39062,540.52734,2.31707,4.39024,-0.91463,13.35,-81.15,42.90
2.370606000000066,-556.64062,-654.29687,530.76172,-1.03659,6.21951,-2.25610,13.35,-81.15,42.90
2.373230000000035,-559.08203,-658.20312,533.20312,1.82927,5.67073,-0.36585,13.35,-81.15,42.90
2.3757940000000417,-567.38281,-651.36719,536.62109,0.36585,4.14634,-0.24390,13.35,-81.15,42.90
2.3785400000000436,-572.75391,-639.16016,519.04297,0.91463,1.40244,-1.46341,13.35,-81.15,42.90
2.3812260000000833,-578.61328,-642.57812,524.41406,0.79268,0.85366,-3.65854,13.35,-81.15,42.90
2.383911000000012,-567.38281,-661.62109,527.34375,1.76829,-1.64634,-4.75610,14.85,-83.10,41.55
2.3866580000000113,-567.38281,-675.78125,521.97266,0.36585,-1.03659,-2.98780,14.85,-83.10,41.55
2.389344000000051,-563.47656,-666.50391,541.50391,1.76829,-0.18293,-4.93902,14.85,-83.10,41.55
2.3920289999999795,-562.01172,-680.17578,552.73437,2.62195,-1.21951,-4.39024,14.85,-83.10,41.55
2.394775999999979,-535.64453,-696.28906,560.54687,3.96341,-5.60976,-5.67073,15.60,-81.15,41.55
2.397521999999981,-540.03906,-709.96094,562.98828,5.00000,-4.75610,-3.78049,15.60,-81.15,41.55
2.4002080000000205,-514.64844,-710.93750,566.89453,3.65854,-3.71951,-2.37805,15.60,-81.15,41.55
2.4029540000000225,-500.97656,-711.91406,561.03516,5.12195,-6.95122,-4.26829,15.15,-81.15,41.10
2.405701000000022,-515.62500,-687.98828,560.54687,4.32927,-5.42683,-2.13415,15.15,-81.15,41.10
2.4084480000000212,-506.83594,-631.83594,563.96484,4.75610,-5.60976,-1.21951,15.15,-81.15,41.10
2.4111330000000635,-524.90234,-644.04297,577.63672,3.78049,-6.03659,-4.02439,15.15,-81.15,41.10
2.413880000000063,-535.15625,-639.16016,578.61328,0.97561,-5.30488,-4.39024,14.10,-82.35,42.30
2.4166260000000648,-501.95312,-656.73828,590.82031,0.60976,-5.73171,-0.24390,14.10,-82.35,42.30
2.419311999999991,-511.23047,-652.83203,563.96484,1.40244,-5.36585,-4.75610,14.10,-82.35,42.30
2.4220579999999927,-528.80859,-658.69141,584.96094,0.97561,-3.23171,0.12195,13.95,-81.30,39.60
2.424804999999992,-526.36719,-667.48047,571.28906,1.58537,-6.03659,-4.26829,13.95,-81.30,39.60
2.4275519999999915,-533.20312,-658.69141,570.31250,-0.79268,-4.57317,-4.32927,13.95,-81.30,39.60
2.4302370000000337,-530.76172,-674.80469,560.54687,-0.42683,-3.71951,-3.53659,13.95,-81.30,39.60
2.432984000000033,-531.25000,-667.96875,544.92187,-1.70732,-7.43902,-4.93902,13.95,-81.75,39.90
2.435730000000035,-552.24609,-647.46094,533.20312,1.76829,-7.56098,-3.78049,13.95,-81.75,39.90
2.438537999999994,-550.29297,-628.41797,552.73437,-1.82927,-4.45122,-5.30488,13.95,-81.75,39.90
2.4412230000000363,-544.43359,-633.30078,543.45703,-1.95122,-5.85366,-5.36585,13.80,-79.35,39.00
2.4439700000000357,-556.15234,-618.65234,555.17578,-1.46341,-8.23171,-5.24390,13.80,-79.35,39.00
2.446777999999995,-550.78125,-639.16016,563.96484,-2.50000,-7.01220,-6.34146,13.80,-79.35,39.00
2.4495239999999967,-550.29297,-646.97266,563.96484,-1.52439,-8.78049,-6.46341,13.80,-79.35,39.00
2.4522100000000364,-527.34375,-683.59375,558.59375,-1.95122,-7.80488,-7.01220,13.05,-80.40,39.75
2.455016999999998,-536.13281,-707.03125,563.96484,-1.52439,-6.70732,-6.70732,13.05,-80.40,39.75
2.4577639999999974,-544.43359,-675.29297,551.26953,0.00000,-9.26829,-6.89024,13.05,-80.40,39.75
2.460450000000037,-531.25000,-668.45703,547.85156,-1.28049,-4.69512,-6.70732,13.05,-80.40,39.75
2.463196000000039,-539.55078,-614.25781,545.89844,-1.40244,-7.62195,-7.01220,13.05,-80.40,39.75
2.4659430000000384,-537.10937,-603.02734,537.10937,-3.65854,-8.29268,-8.47561,13.05,-80.40,39.75
2.4686890000000403,-547.85156,-605.46875,544.43359,-0.18293,-9.57317,-6.21951,13.05,-80.40,39.75
2.4714360000000397,-561.52344,-625.48828,563.47656,-4.51220,-9.02439,-10.73171,13.05,-80.40,39.75
2.4741820000000416,-566.40625,-666.99219,569.33594,-3.47561,-6.89024,-10.79268,13.05,-80.40,39.75
2.476929000000041,-552.73437,-663.57422,566.89453,-4.32927,-9.93902,-12.62195,13.05,-80.40,39.75
2.4796760000000404,-529.78516,-666.99219,551.75781,-1.09756,-9.02439,-8.96341,13.05,-80.40,39.75
2.4824220000000423,-544.43359,-665.03906,560.05859,-3.53659,-10.36585,-9.57317,12.75,-81.00,37.05
2.4851690000000417,-532.71484,-674.31641,544.92187,-0.36585,-9.87805,-10.48780,12.75,-81.00,37.05
2.4879150000000436,-489.74609,-676.26953,561.03516,-1.58537,-11.64634,-11.46341,12.75,-81.00,37.05
2.490662000000043,-530.27344,-672.36328,551.75781,-0.97561,-13.41463,-10.18293,11.85,-80.40,36.15
2.4934090000000424,-540.03906,-690.91797,533.20312,0.36585,-11.21951,-10.73171,11.85,-80.40,36.15
2.4961550000000443,-545.89844,-681.15234,540.03906,-2.50000,-12.98780,-12.80488,11.85,-80.40,36.15
2.4989020000000437,-553.71094,-636.23047,547.36328,0.67073,-15.30488,-9.08537,11.85,-80.40,36.15
2.501587000000086,-514.64844,-659.66797,551.26953,-1.64634,-14.14634,-11.15854,12.60,-81.90,35.40
2.5043340000000853,-554.68750,-636.71875,549.80469,-1.15854,-13.41463,-13.78049,12.60,-81.90,35.40
2.5070800000000872,-494.62891,-691.40625,542.96875,-0.42683,-20.60976,-9.93902,12.60,-81.90,35.40
2.5098270000000866,-511.71875,-651.85547,579.58984,2.56098,-18.10976,-9.93902,12.45,-79.50,35.40
2.512574000000086,-521.48437,-655.27344,608.88672,2.07317,-21.58537,-13.41463,12.45,-79.50,34.95
2.5152590000000146,-480.95703,-741.21094,584.47266,-2.25610,-14.14634,-12.19512,12.45,-79.50,34.95
2.5180670000000873,-544.43359,-653.32031,603.51562,2.43902,-17.25610,-10.54878,12.45,-79.50,34.95
2.5208130000000892,-508.30078,-658.69141,614.25781,-1.03659,-16.21951,-11.76829,11.25,-79.65,33.60
2.5235600000000886,-496.09375,-660.15625,590.33203,-0.06098,-14.81707,-8.47561,11.25,-79.65,33.60
2.526245000000017,-506.83594,-661.13281,618.16406,1.64634,-18.47561,-11.34146,11.25,-79.65,33.60
2.5289920000000166,-473.14453,-680.17578,599.12109,1.58537,-14.75610,-9.39024,11.25,-79.65,33.60
2.531739000000016,-483.88672,-662.59766,602.53906,2.19512,-14.87805,-10.85366,11.25,-78.90,34.65
2.534485000000018,-480.95703,-716.30859,595.21484,1.34146,-14.14634,-11.21951,11.25,-78.90,34.65
2.5371710000000576,-478.02734,-636.23047,617.18750,-0.42683,-13.90244,-9.75610,11.25,-78.90,34.65
2.5399170000000595,-461.91406,-687.50000,604.49219,0.06098,-15.73171,-10.91463,11.55,-79.35,33.30
2.5426029999999855,-505.37109,-695.31250,611.32812,1.89024,-13.96341,-8.23171,11.55,-79.35,33.30
2.5453489999999874,-500.00000,-712.89062,620.11719,-0.42683,-10.85366,-8.41463,11.55,-79.35,33.30
2.548095999999987,-489.25781,-678.22266,619.62891,-1.95122,-10.18293,-9.32927,11.55,-79.35,33.30
2.5507820000000265,-481.44531,-693.84766,610.83984,-4.57317,-10.18293,-10.79268,9.30,-78.15,33.60
2.5535280000000284,-478.51562,-685.05859,577.14844,0.97561,-10.36585,-8.96341,9.30,-78.15,33.60
2.556214000000068,-472.16797,-697.75391,593.75000,1.58537,-13.23171,-7.74390,9.30,-78.15,33.60
2.5588989999999967,-471.67969,-688.96484,594.23828,-0.30488,-7.43902,-9.93902,9.30,-78.15,33.60
2.561645999999996,-469.23828,-702.14844,571.77734,-1.52439,-7.98780,-7.19512,9.30,-78.15,33.60
2.564391999999998,-485.35156,-725.09766,576.66016,-0.12195,-11.58537,-9.14634,9.30,-78.15,33.60
2.5670780000000377,-469.72656,-722.65625,550.29297,-0.73171,-11.09756,-5.79268,9.30,-78.15,33.60
2.569825000000037,-459.96094,-700.19531,578.12500,-0.48780,-11.52439,-7.37805,9.30,-78.15,33.60
2.572571000000039,-491.21094,-717.28516,563.96484,1.76829,-13.35366,-7.13415,9.30,-78.15,33.60
2.5752570000000787,-503.90625,-703.61328,571.28906,-1.46341,-15.36585,-8.10976,9.30,-78.15,33.60
2.5780030000000806,-509.27734,-699.70703,572.75391,-1.15854,-13.65854,-7.13415,9.30,-78.15,33.60
2.58075000000008,-488.28125,-687.98828,565.91797,1.58537,-14.87805,-7.98780,9.75,-79.65,32.55
2.5834350000000086,-511.23047,-687.98828,533.20312,0.30488,-13.65854,-8.53659,9.75,-79.65,32.55
2.586182000000008,-518.06641,-641.11328,554.19922,0.24390,-14.87805,-9.81707,9.75,-79.65,32.55
2.5888680000000477,-520.01953,-623.04687,541.50391,3.23171,-17.68293,-9.39024,10.80,-79.65,33.60
2.5916140000000496,-508.30078,-636.23047,558.59375,2.50000,-20.18293,-9.08537,10.80,-79.65,33.60
2.5942999999999756,-549.31641,-655.76172,573.73047,3.65854,-17.92683,-10.30488,10.80,-79.65,33.60
2.5970459999999775,-523.92578,-645.50781,534.17969,5.12195,-23.41463,-11.40244,10.80,-79.65,33.60
2.5997320000000173,-513.18359,-635.25391,513.18359,6.09756,-23.10976,-13.41463,10.05,-80.85,32.25
2.602478000000019,-557.61719,-581.05469,512.20703,5.67073,-24.02439,-16.09756,10.05,-80.85,32.25
2.6051029999999855,-535.15625,-564.45312,498.04687,5.73171,-25.48780,-18.29268,10.05,-80.85,32.25
2.6077880000000278,-549.31641,-557.61719,526.36719,4.87805,-26.34146,-15.91463,10.35,-79.80,32.25
2.610595999999987,-553.71094,-597.65625,522.46094,5.60976,-27.07317,-20.67073,10.35,-79.80,33.15
2.613221000000067,-543.45703,-665.52734,544.43359,7.19512,-29.75610,-21.03658,10.35,-79.80,33.15
2.6159670000000688,-515.62500,-612.30469,517.08984,9.26829,-34.02439,-21.03658,10.35,-79.80,33.15
2.618652999999995,-534.17969,-645.50781,527.34375,11.21951,-32.56097,-17.92683,8.70,-78.90,34.35
2.6213989999999967,-549.80469,-634.76562,516.11328,10.06098,-34.20732,-23.47561,8.70,-78.90,34.35
2.6240850000000364,-558.10547,-635.74219,539.06250,6.34146,-34.02439,-23.17073,8.70,-78.90,34.35
2.6268310000000383,-486.81641,-627.92969,490.72266,9.93902,-38.41463,-23.10976,8.70,-78.90,34.35
2.629517000000078,-502.92969,-575.68359,518.55469,9.02439,-39.93903,-25.18293,8.85,-79.50,33.75
2.6322020000000066,-501.95312,-547.36328,495.11719,8.96341,-44.20732,-26.89024,8.85,-79.50,33.75
2.634949000000006,-539.06250,-560.05859,550.29297,14.26829,-45.79268,-27.19512,8.85,-79.50,33.75
2.6376350000000457,-519.53125,-664.06250,575.19531,6.58537,-42.37805,-30.73171,7.95,-77.70,31.80
2.6403810000000476,-471.67969,-605.46875,571.77734,9.75610,-41.95122,-25.97561,7.95,-77.70,31.80
2.6430670000000873,-478.51562,-535.64453,559.08203,15.30488,-44.14634,-29.39024,7.95,-77.70,31.80
2.6458130000000892,-508.78906,-841.30859,588.37891,5.42683,-46.21951,-27.43902,7.95,-77.70,31.80
2.6484990000000153,-478.02734,-762.20703,582.03125,7.80488,-44.75610,-23.04878,7.95,-78.90,32.55
2.6511840000000575,-491.69922,-633.78906,609.37500,8.47561,-46.82927,-16.82927,7.95,-78.90,32.55
2.6538699999999835,-451.17187,-663.57422,608.88672,13.71951,-49.69512,-21.89024,7.95,-78.90,32.55
2.656616999999983,-457.03125,-728.51562,595.21484,13.41463,-49.57317,-16.40244,7.95,-78.90,32.55
2.659362999999985,-421.87500,-803.22266,612.30469,15.85366,-50.12195,-14.45122,7.95,-78.90,32.55
2.662109999999984,-432.12891,-713.37891,628.90625,15.54878,-49.63415,-14.14634,7.95,-78.90,32.55
2.6647950000000264,-465.82031,-752.92969,661.62109,14.32927,-41.09756,-6.15854,7.95,-78.90,32.55
2.667542000000026,-417.48047,-691.40625,617.67578,15.67073,-40.85366,-5.18293,7.95,-78.90,32.55
2.670227000000068,-435.54687,-732.91016,667.48047,15.36585,-36.09756,-2.43902,7.95,-78.90,32.55
2.672912999999994,-429.19922,-785.15625,610.83984,12.68293,-37.07317,-12.62195,7.95,-78.90,32.55
2.675721000000067,-410.15625,-706.05469,729.00391,13.71951,-38.59756,-10.97561,7.95,-78.90,32.55
2.6784059999999954,-418.45703,-680.17578,697.75391,17.13415,-39.26829,-5.42683,7.35,-76.80,33.15
2.681152999999995,-388.18359,-712.89062,679.68750,8.90244,-35.42683,-9.02439,7.35,-76.80,33.15
2.6838989999999967,-398.43750,-760.74219,693.35937,8.65854,-43.53659,-9.63415,7.35,-76.80,33.15
2.686645999999996,-370.60547,-729.00391,687.98828,4.20732,-43.17073,-12.43902,7.35,-77.25,31.95
2.6892700000000787,-363.28125,-731.44531,714.35547,3.84146,-38.53659,-8.71951,7.35,-77.25,31.95
2.691895000000045,-388.67187,-726.07422,654.78516,0.42683,-39.39024,-8.35366,7.35,-77.25,31.95
2.694641000000047,-384.76562,-691.40625,694.82422,-4.14634,-34.45122,-7.74390,7.35,-77.25,31.95
2.6973270000000866,-396.48437,-677.24609,703.61328,-8.59756,-33.96341,-2.68293,7.50,-78.45,32.85
2.700074000000086,-396.97266,-756.83594,708.98437,-9.93902,-35.30488,-1.58537,7.50,-78.45,32.85
2.702820000000088,-377.44141,-661.13281,657.71484,-12.07317,-35.97561,-3.17073,7.50,-78.45,32.85
2.705506000000014,-345.70312,-742.67578,740.72266,-9.08537,-36.46341,-1.21951,7.50,-78.45,32.85
2.708252000000016,-354.00391,-748.04687,758.30078,-9.26829,-32.68293,-4.57317,7.20,-78.90,34.35
2.7109990000000153,-361.81641,-709.47266,710.93750,-13.65854,-32.74390,-1.70732,7.20,-78.90,34.35
2.7136840000000575,-340.33203,-706.05469,746.58203,-14.14634,-28.17073,0.18293,7.20,-78.90,34.35
2.716431000000057,-375.48828,-695.31250,701.17187,-16.64634,-21.03658,-0.36585,5.85,-78.00,34.20
2.7191780000000563,-410.64453,-664.06250,627.92969,-20.67073,-23.96342,-1.09756,5.85,-78.00,34.20
2.721862999999985,-384.76562,-731.93359,667.96875,-14.87805,-24.63415,2.31707,5.85,-78.00,34.20
2.7245490000000245,-400.87891,-718.75000,680.17578,-12.43902,-20.85366,-2.56098,5.85,-78.00,34.20
2.7272340000000668,-416.99219,-694.82422,711.42578,-17.62195,-17.92683,-1.03659,6.90,-78.15,35.10
2.729981000000066,-426.26953,-712.89062,634.76562,-14.69512,-14.57317,5.42683,6.90,-78.15,35.10
2.732727000000068,-418.94531,-718.75000,658.69141,-13.53659,-15.30488,-2.07317,6.90,-78.15,35.10
2.7354740000000675,-431.64062,-810.54687,733.39844,-15.67073,-12.37805,2.01220,7.05,-79.05,33.45
2.7381599999999935,-525.39062,-707.51953,741.69922,-6.46341,-15.48780,-0.12195,7.05,-79.05,33.45
2.7409059999999954,-443.84766,-700.19531,650.87891,-11.95122,-9.93902,1.46341,7.05,-79.05,33.45
2.743592000000035,-408.69141,-729.00391,612.79297,-15.06098,-10.60976,-3.90244,7.05,-79.05,33.45
2.7462770000000774,-429.19922,-682.12891,626.46484,-6.64634,-19.63415,5.54878,6.60,-79.05,34.95
2.748841000000084,-444.33594,-697.26562,664.06250,-5.79268,-17.56098,3.35366,6.60,-79.05,34.95
2.7515260000000126,-444.33594,-703.12500,612.79297,-4.93902,-17.62195,-3.53659,6.60,-79.05,34.95
2.754273000000012,-433.10547,-673.33984,634.27734,-0.67073,-13.84146,4.69512,6.60,-79.05,34.95
2.756958000000054,-436.52344,-660.15625,616.21094,-8.29268,-9.08537,-9.20732,6.60,-79.05,34.95
2.7597050000000536,-444.82422,-684.57031,646.48437,-6.15854,-10.36585,-5.67073,6.60,-79.05,34.95
2.762452000000053,-429.19922,-700.68359,622.07031,-7.62195,-12.37805,-3.65854,6.60,-79.05,34.95
2.7651369999999815,-429.68750,-704.58984,628.41797,-6.64634,-10.18293,-9.63415,6.60,-79.05,34.95
2.7678230000000212,-417.96875,-746.09375,634.27734,-6.09756,-9.69512,-8.41463,6.60,-79.05,34.95
2.770569000000023,-400.87891,-697.75391,619.62891,-0.24390,-9.26829,-6.95122,6.60,-79.05,34.95
2.773255000000063,-401.85547,-750.97656,647.94922,-1.40244,-12.98780,-8.29268,6.60,-79.05,34.95
2.7760010000000648,-419.92187,-720.21484,614.25781,-5.36585,-10.42683,-10.73171,7.20,-77.70,32.55
2.778748000000064,-416.01562,-686.03516,608.39844,-5.30488,-11.70732,-5.67073,7.20,-77.70,32.55
2.781494000000066,-410.15625,-690.91797,606.44531,-4.26829,-14.51220,-5.67073,7.20,-77.70,32.55
2.784179999999992,-457.03125,-731.44531,632.81250,-2.80488,-10.79268,-6.46341,7.20,-77.70,32.55
2.7869269999999915,-439.94141,-703.12500,631.83594,-4.39024,-12.74390,-4.81707,4.50,-77.25,34.50
2.7896729999999934,-427.24609,-717.28516,625.00000,0.85366,-17.13415,-8.35366,4.50,-77.25,34.50
2.792359000000033,-420.41016,-704.10156,628.41797,2.56098,-14.69512,-6.52439,4.50,-77.25,34.50
2.7950440000000754,-438.47656,-667.96875,619.14062,0.30488,-18.35366,-9.45122,6.30,-77.25,32.70
2.7977910000000747,-433.59375,-681.64062,625.00000,-3.29268,-20.85366,-12.13415,6.30,-77.25,32.70
2.8005370000000767,-449.21875,-731.44531,639.64844,0.00000,-17.43902,-10.30488,6.30,-77.25,32.70
2.8032230000000027,-415.52734,-646.48437,589.84375,-4.32927,-17.80488,-14.81707,6.30,-77.25,32.70
2.805970000000002,-428.22266,-700.19531,583.98437,1.21951,-27.19512,-15.42683,5.40,-78.90,32.55
2.8086550000000443,-428.71094,-724.12109,606.93359,-0.54878,-18.04878,-8.47561,5.40,-78.90,32.55
2.8114020000000437,-409.17969,-694.33594,619.14062,2.86585,-19.93902,-9.75610,5.40,-78.90,32.55
2.8141480000000456,-427.73437,-737.79297,662.10937,5.85366,-20.54878,-9.69512,7.35,-78.00,34.95
2.8168340000000853,-436.03516,-729.49219,634.27734,5.48780,-23.71951,-13.78049,7.35,-78.00,34.95
2.8195800000000872,-408.69141,-727.53906,614.74609,7.80488,-18.17073,-15.00000,7.35,-78.00,34.95
2.8222660000000133,-377.92969,-670.89844,600.58594,4.81707,-22.43902,-7.92683,7.35,-78.00,34.95
2.824952000000053,-401.85547,-694.82422,598.63281,8.71951,-22.62195,-12.07317,5.40,-76.95,33.60
2.827698000000055,-373.53516,-649.90234,592.77344,5.24390,-21.76829,-10.48780,5.40,-76.95,33.60
2.830383999999981,-401.85547,-650.39062,637.69531,6.58537,-29.02439,-10.00000,5.40,-76.95,33.60
2.833069000000023,-408.69141,-711.42578,677.24609,5.73171,-24.93902,-10.73171,6.15,-76.95,34.35
2.8358160000000225,-413.57422,-671.38672,671.87500,4.26829,-20.00000,-13.23171,6.15,-76.95,34.35
2.8385620000000245,-419.43359,-688.47656,697.75391,3.96341,-21.89024,-11.34146,6.15,-76.95,34.35
2.841248000000064,-414.55078,-693.35937,702.14844,4.20732,-19.39024,-11.58537,6.15,-76.95,34.35
2.8439329999999927,-420.41016,-700.19531,702.63672,2.68293,-18.96342,-10.06098,6.30,-76.50,34.50
2.8466190000000324,-407.71484,-687.98828,700.68359,3.65854,-18.47561,-11.03659,6.30,-76.50,34.50
2.849366000000032,-426.26953,-732.91016,708.49609,1.15854,-17.98780,-12.37805,6.30,-76.50,34.50
2.852051000000074,-382.32422,-692.87109,693.35937,1.21951,-18.35366,-9.57317,6.30,-76.50,34.50
2.8547980000000734,-381.83594,-708.49609,692.87109,-0.73171,-16.82927,-13.04878,6.30,-76.50,34.50
2.857483000000002,-387.20703,-703.61328,710.44922,2.37805,-12.98780,-4.20732,6.30,-76.50,34.50
2.8601690000000417,-346.67969,-711.91406,747.55859,1.58537,-12.68293,-10.79268,6.30,-76.50,34.50
2.8629150000000436,-375.97656,-634.27734,734.86328,-0.18293,-11.09756,-10.42683,6.30,-76.50,34.50
2.8656010000000833,-457.51953,-690.42969,716.79687,-1.70732,-13.23171,-8.17073,6.30,-76.50,34.50
2.8683480000000827,-421.87500,-706.54297,704.58984,-3.29268,-7.80488,-8.47561,6.30,-76.50,34.50
2.8710330000000113,-424.31641,-700.68359,707.03125,-0.79268,-7.92683,-12.68293,6.30,-76.50,34.50
2.873719000000051,-446.28906,-668.94531,709.96094,-4.93902,-4.93902,-11.03659,3.75,-78.00,36.00
2.876465000000053,-468.26172,-658.20312,688.47656,-3.17073,-5.54878,-15.54878,3.75,-78.00,36.00
2.879150999999979,-467.28516,-634.76562,686.52344,-5.24390,-3.65854,-19.32927,3.75,-78.00,36.00
2.881836000000021,-484.37500,-637.20703,700.19531,-5.91463,3.23171,-23.17073,3.75,-78.00,36.00
2.8845830000000205,-454.10156,-648.92578,681.64062,-8.10976,1.28049,-28.04878,7.20,-76.20,36.15
2.887268000000063,-437.01172,-672.36328,670.41016,-8.65854,2.31707,-27.50000,7.20,-76.20,36.15
2.890015000000062,-431.15234,-692.87109,708.49609,-12.19512,1.09756,-30.06098,7.20,-76.20,36.15
2.8927620000000616,-441.89453,-665.52734,699.21875,-11.28049,4.69512,-30.73171,5.55,-78.00,34.50
2.8955080000000635,-423.82812,-670.89844,708.00781,-10.24390,2.62195,-34.45122,5.55,-78.00,34.50
2.8981939999999895,-418.94531,-655.76172,716.79687,-14.39024,8.96341,-33.96341,5.55,-78.00,34.50
2.9009399999999914,-430.66406,-677.73437,731.44531,-18.29268,8.90244,-34.81707,5.55,-78.00,34.50
2.903626000000031,-416.99219,-670.41016,731.93359,-18.65854,7.98780,-33.96341,6.15,-76.95,33.60
2.90625,-397.46094,-676.75781,762.20703,-23.29268,4.57317,-36.03659,6.15,-76.95,33.60
2.90887500000008,-402.83203,-667.48047,769.53125,-27.07317,7.25610,-36.34146,6.15,-76.95,33.60
2.911621000000082,-403.80859,-684.57031,756.34766,-31.82927,-0.67073,-31.89024,3.90,-77.70,35.85
2.914307000000008,-410.64453,-692.87109,755.85937,-40.36585,3.17073,-33.90244,3.90,-77.70,35.85
2.9169930000000477,-417.48047,-684.08203,748.04687,-38.65854,4.75610,-28.59756,3.90,-77.70,35.85
2.9197390000000496,-407.22656,-715.82031,759.76562,-45.97561,7.25610,-30.79268,3.90,-77.70,35.85
2.922486000000049,-430.66406,-695.31250,770.01953,-50.24390,6.03659,-31.52439,4.80,-79.05,35.25
2.925110000000018,-455.07812,-713.37891,782.22656,-56.64634,5.30488,-28.78049,4.80,-79.05,35.25
2.9278570000000173,-472.65625,-725.09766,787.59766,-60.42683,0.36585,-28.29268,4.80,-79.05,35.25
2.930603000000019,-409.17969,-754.39453,819.33594,-71.21951,-2.92683,-28.53658,4.80,-79.05,35.25
2.9333500000000186,-350.58594,-815.91797,910.15625,-67.31707,8.17073,-24.93902,3.60,-76.95,33.60
2.936097000000018,-317.38281,-729.98047,958.00781,-75.00000,5.42683,-27.98780,3.60,-76.95,33.60
2.93878200000006,-365.72266,-663.57422,909.66797,-86.03658,12.07317,-43.17073,3.60,-76.95,33.60
2.941467999999986,-412.59766,-673.33984,916.01562,-79.45122,19.02439,-21.52439,3.45,-80.25,33.75
2.9441530000000284,-412.10937,-743.65234,931.15234,-84.63415,20.91463,-31.52439,3.45,-80.25,33.75
2.946900000000028,-407.22656,-756.83594,943.84766,-88.78049,23.29268,-27.01220,3.45,-80.25,33.75
2.9496460000000297,-435.05859,-702.63672,929.19922,-89.02439,20.36585,-38.10976,3.45,-80.25,33.75
2.952393000000029,-379.88281,-771.48437,923.82812,-100.36585,25.79268,-40.24390,3.45,-80.25,33.75
2.9550780000000714,-410.15625,-752.92969,934.57031,-103.84146,25.97561,-38.96341,3.45,-80.25,33.75
2.9577030000000377,-383.78906,-764.16016,916.99219,-103.59756,28.59756,-39.32927,3.45,-80.25,33.75
2.9603270000000066,-392.08984,-781.73828,916.50391,-103.96342,31.89024,-42.19512,3.45,-80.25,33.75
2.9630130000000463,-421.87500,-776.85547,912.10937,-103.29269,32.50000,-43.65854,3.45,-80.25,33.75
2.9657600000000457,-412.10937,-769.04297,895.01953,-106.34146,33.04878,-46.64634,3.45,-80.25,33.75
2.9685060000000476,-387.69531,-808.10547,885.74219,-107.62195,34.81707,-46.46341,3.45,-80.25,33.75
2.9711920000000873,-395.01953,-808.59375,875.48828,-110.30488,30.36585,-46.15854,3.60,-79.35,30.75
2.9739380000000892,-410.15625,-796.38672,899.41406,-113.29269,37.98780,-51.34146,3.60,-79.35,30.75
2.9766240000000153,-452.14844,-847.65625,924.31641,-109.08537,30.48780,-47.56097,3.60,-79.35,30.75
2.9793090000000575,-444.82422,-837.40234,919.43359,-112.01219,30.79268,-46.64634,3.60,-79.35,30.75
2.9819949999999835,-466.30859,-847.16797,913.08594,-124.45122,34.51220,-50.54878,4.35,-81.60,29.70
2.984741999999983,-487.30469,-855.95703,938.47656,-126.34146,31.95122,-46.03659,4.35,-81.60,29.70
2.987487999999985,-498.04687,-825.68359,914.06250,-128.23170,32.62195,-55.85366,4.35,-81.60,29.70
2.9901740000000245,-509.27734,-858.88672,931.64062,-132.37805,38.84146,-51.95122,2.85,-79.65,28.20
2.9929200000000264,-517.08984,-835.93750,957.03125,-137.31708,36.64634,-57.98780,2.85,-79.65,28.20
2.995606000000066,-527.34375,-870.60547,959.96094,-138.29268,32.50000,-56.03659,2.85,-79.65,28.20
2.9982909999999947,-541.99219,-925.78125,953.12500,-136.28049,31.70732,-59.57317,2.85,-79.65,28.20
3.001037999999994,-530.76172,-964.35547,973.14453,-146.40244,32.86585,-66.95122,2.70,-81.00,28.50
3.0037849999999935,-569.82422,-949.21875,958.49609,-140.42683,28.65854,-59.57317,2.70,-81.00,28.50
3.0065309999999954,-597.65625,-935.54687,977.05078,-140.85365,35.06097,-61.03659,2.70,-81.00,28.50
3.009217000000035,-604.98047,-946.28906,970.21484,-145.54878,32.07317,-67.98781,2.40,-81.00,28.50
3.0119020000000774,-620.60547,-931.64062,951.66016,-147.56097,31.21951,-72.62195,2.40,-80.40,27.60
3.0146490000000767,-626.46484,-923.33984,950.19531,-145.91463,29.57317,-64.69512,2.40,-80.40,27.60
3.0173950000000787,-637.20703,-892.08984,969.23828,-146.46341,29.81707,-74.57317,2.40,-80.40,27.60
3.0200810000000047,-656.25000,-934.57031,953.61328,-141.64635,27.01220,-66.28049,2.25,-80.55,25.50
3.0228270000000066,-671.87500,-943.35937,950.19531,-149.26830,29.26829,-73.47561,2.25,-80.55,25.50
3.0255130000000463,-679.19922,-990.72266,915.03906,-150.97562,24.08537,-75.06097,2.25,-80.55,25.50
3.028199000000086,-682.12891,-919.43359,883.30078,-148.04878,25.48780,-75.24390,2.25,-80.55,25.50
3.030945000000088,-695.31250,-919.92187,858.88672,-153.29268,21.46342,-83.29269,3.15,-82.65,25.80
3.0336920000000873,-731.44531,-979.49219,861.81641,-152.25610,27.37805,-81.58537,3.15,-82.65,25.80
3.036377000000016,-728.02734,-975.09766,854.49219,-153.29268,20.42683,-83.17073,3.15,-82.65,25.80
3.0391240000000153,-759.76562,-993.16406,818.84766,-152.62195,24.32927,-79.26830,0.45,-84.00,25.95
3.0418090000000575,-701.17187,-1078.12500,770.01953,-158.71951,18.90244,-92.31707,0.45,-84.00,25.95
3.044556000000057,-695.80078,-1164.06250,814.94141,-154.20732,12.98780,-90.67073,0.45,-84.00,25.95
3.047241999999983,-686.03516,-1135.25391,839.84375,-154.51219,11.09756,-90.97561,0.45,-84.00,25.95
3.049987999999985,-682.12891,-1051.75781,875.48828,-153.59756,9.02439,-96.09756,0.45,-84.00,25.95
3.052734999999984,-535.15625,-982.91016,969.23828,-148.84146,8.53659,-93.35366,0.45,-84.00,25.95
3.0553590000000668,-623.53516,-945.80078,1070.80078,-148.23170,1.46341,-93.04878,0.45,-84.00,25.95
3.058044999999993,-666.01562,-819.33594,1123.53516,-137.86586,1.34146,-88.17073,0.45,-84.00,25.95
3.0607909999999947,-691.89453,-742.18750,1122.07031,-133.71951,4.75610,-86.40244,0.45,-84.00,25.95
3.063537999999994,-745.11719,-705.07812,1262.20703,-125.85366,3.71951,-81.76830,0.45,-84.00,25.95
3.0662230000000363,-708.49609,-614.74609,1220.21484,-116.21951,0.73171,-84.93903,0.45,-84.00,25.95
3.0689700000000357,-723.63281,-498.04687,1243.16406,-112.56097,6.70732,-74.93903,1.20,-84.45,24.90
3.071717000000035,-726.56250,-382.32422,1271.97266,-104.87805,-2.74390,-75.85366,1.20,-84.45,24.90
3.0745239999999967,-661.62109,-202.14844,1237.30469,-98.10976,0.91463,-73.84146,1.20,-84.45,24.90
3.0772100000000364,-723.14453,-5.37109,1249.02344,-91.09756,-6.21951,-62.92683,1.20,-84.45,24.90
3.0799560000000383,-643.55469,57.12891,1215.82031,-90.48781,-6.34146,-68.41463,2.25,-84.00,26.70
3.082642000000078,-737.30469,303.22266,1287.10938,-84.63415,-14.14634,-60.54878,2.25,-84.00,26.70
3.0853270000000066,-758.78906,326.17187,1166.01563,-82.13415,-14.81707,-54.51220,2.25,-84.00,26.70
3.088074000000006,-770.01953,453.61328,1184.08203,-82.13415,-24.69512,-54.63415,1.35,-84.60,24.00
3.0908210000000054,-817.87109,417.48047,1211.42578,-75.79269,-20.79268,-48.41463,1.35,-84.60,24.00
3.0935060000000476,-811.03516,114.74609,1109.86328,-80.73170,-28.47561,-38.71951,1.35,-84.60,24.00
3.0961920000000873,-837.40234,-299.80469,1281.73828,-72.37805,-27.74390,-33.23171,1.35,-84.60,24.00
3.098999000000049,-904.29687,-204.10156,1444.82422,-59.87805,-36.40244,-22.62195,1.20,-82.20,24.90
3.1017460000000483,-861.32812,23.43750,1392.08984,-47.62195,-39.45122,-16.28049,1.20,-82.20,24.90
3.104432000000088,-754.39453,123.04688,1315.91797,-47.25610,-46.15854,-13.59756,1.20,-82.20,24.90
3.107056000000057,-711.91406,147.46094,1267.08984,-36.46341,-47.19512,-3.65854,1.20,-82.20,24.90
3.1096810000000232,-703.61328,184.08203,1243.65234,-34.51220,-46.21951,-2.25610,0.30,-83.85,23.25
3.112427000000025,-693.84766,240.23437,1224.12109,-29.32927,-48.96341,6.58537,0.30,-83.85,23.25
3.115113000000065,-677.24609,255.85937,1217.77344,-24.32927,-50.54878,10.85366,0.30,-83.85,23.25
3.1178590000000668,-632.81250,236.32812,1210.44922,-19.20732,-49.81707,15.36585,0.30,-83.85,22.95
3.120544999999993,-622.55859,227.05078,1200.19531,-17.50000,-47.80488,20.67073,0.30,-83.85,22.95
3.123230000000035,-636.71875,212.89062,1198.24219,-12.07317,-50.73171,19.63415,0.30,-83.85,22.95
3.1259770000000344,-619.62891,200.68359,1212.40234,-4.02439,-50.18293,24.69512,0.30,-83.85,22.95
3.1286620000000767,-631.83594,186.52344,1206.05469,-2.13415,-46.58537,26.82927,0.60,-83.10,21.75
3.1314700000000357,-628.41797,186.03516,1195.80078,2.86585,-48.47561,33.71951,0.60,-83.10,21.75
3.134095000000002,-623.04687,162.59766,1193.84766,8.90244,-50.24390,34.08537,0.60,-83.10,21.75
3.1367800000000443,-619.14062,154.78516,1186.03516,15.48780,-46.76829,38.71951,-1.05,-82.65,20.70
3.139466000000084,-626.95312,148.92578,1171.87500,22.68293,-49.26829,39.75610,-1.05,-82.65,20.70
3.1421510000000126,-630.85937,145.50781,1181.15234,21.89024,-47.43903,42.62195,-1.05,-82.65,20.70
3.1448370000000523,-623.04687,142.08984,1154.29688,30.67073,-50.18293,45.91463,-1.05,-82.65,20.70
3.147521999999981,-622.07031,126.46484,1149.90234,35.54878,-48.84146,45.54878,-1.05,-82.65,20.70
3.1502080000000205,-608.88672,125.97656,1137.20703,40.60976,-51.82927,50.73171,-1.05,-82.65,20.70
3.1529540000000225,-618.16406,120.11719,1135.25391,42.86585,-50.60976,51.52439,-1.05,-82.65,20.70
3.155701000000022,-615.72266,120.60547,1120.11719,48.10976,-52.01220,52.13415,-1.05,-82.65,20.70
3.1583870000000616,-606.44531,110.83984,1100.58594,53.29268,-52.31707,57.50000,-1.05,-82.65,20.70
3.16107199999999,-621.58203,101.56250,1092.28516,57.68293,-56.70732,53.84146,-1.05,-82.65,20.70
3.1638189999999895,-617.18750,96.19141,1077.14844,58.96341,-55.00000,58.35366,-1.05,-82.65,20.70
3.1665649999999914,-614.74609,90.33203,1073.73047,63.96341,-56.28049,60.85366,-1.20,-81.75,19.80
3.169251000000031,-631.34766,61.52344,1081.54297,68.10976,-59.63415,59.93903,-1.20,-81.75,19.80
3.171997000000033,-640.13672,21.48438,1070.31250,73.29269,-58.04878,62.56097,-1.20,-81.75,19.80
3.1747440000000324,-641.60156,-8.78906,1069.33594,79.51219,-57.80488,62.74390,-1.20,-81.75,19.80
3.177491000000032,-631.83594,-32.22656,1065.91797,81.40244,-56.95122,66.95122,-2.40,-81.90,17.55
3.180176000000074,-624.51172,-77.63672,1063.47656,87.80488,-59.14634,66.70731,-2.40,-81.90,17.55
3.1829230000000734,-621.09375,-115.23438,1047.85156,91.21951,-55.97561,69.26830,-2.40,-81.90,17.55
3.1856690000000754,-637.20703,-114.74609,1049.80469,96.52439,-57.92683,68.96342,-0.45,-81.30,17.55
3.1884160000000747,-642.57812,-155.76172,1034.17969,102.13415,-57.25610,76.40244,-0.45,-81.30,18.45
3.1911620000000767,-648.43750,-166.50391,1028.80859,103.35366,-56.82927,77.98781,-0.45,-81.30,18.45
3.193909000000076,-625.48828,-184.08203,1014.64844,110.00000,-59.39024,79.81707,-0.45,-81.30,18.45
3.1966560000000754,-650.39062,-190.91797,1007.81250,112.80488,-57.01220,84.14634,0.15,-81.00,17.25
3.199341000000004,-658.20312,-203.61328,1004.88281,117.50000,-57.43903,84.57317,0.15,-81.00,17.25
3.2020880000000034,-652.34375,-234.86328,991.21094,121.03658,-57.80488,87.43903,0.15,-81.00,17.25
3.2048340000000053,-667.96875,-236.32812,979.98047,121.76830,-56.46341,90.91463,0.15,-81.00,17.25
3.2075810000000047,-672.36328,-260.25391,964.35547,127.31707,-58.65854,95.48781,0.60,-78.90,19.65
3.210266000000047,-675.29297,-291.01562,966.30859,127.80488,-61.21951,96.64634,0.60,-78.90,19.65
3.2129520000000866,-684.08203,-300.78125,954.10156,127.56097,-59.32927,98.71951,0.60,-78.90,19.65
3.215699000000086,-688.96484,-325.19531,950.68359,130.91463,-60.36585,102.86585,-0.30,-79.65,18.90
3.218445000000088,-706.05469,-355.46875,940.91797,134.02438,-61.34146,104.20731,-0.30,-79.65,18.90
3.2211920000000873,-723.14453,-386.23047,942.87109,134.39024,-59.57317,105.00000,-0.30,-79.65,18.90
3.2239380000000892,-733.88672,-398.43750,932.61719,135.12195,-60.30488,109.57317,-0.30,-79.65,18.90
3.2266850000000886,-734.37500,-423.82812,949.21875,137.31708,-57.37805,109.45122,-0.90,-81.30,20.55
3.2294930000000477,-738.28125,-443.35937,967.28516,140.24390,-60.06097,110.48781,-0.90,-81.30,20.55
3.2321779999999762,-751.95312,-487.79297,963.37891,139.26830,-54.63415,114.26830,-0.90,-81.30,20.55
3.234986000000049,-738.76953,-515.13672,974.12109,140.85365,-59.81707,116.09756,0.15,-81.00,20.25
3.237732000000051,-742.18750,-555.66406,961.42578,141.70732,-58.65854,114.20731,0.15,-81.00,20.25
3.2404790000000503,-735.83984,-599.12109,960.44922,143.59756,-58.10976,120.54878,0.15,-81.00,20.25
3.243163999999979,-720.70312,-613.76953,953.12500,145.73170,-58.10976,118.96342,0.15,-81.00,20.25
3.2459109999999782,-722.65625,-654.29687,955.07812,146.15854,-56.09756,119.14634,0.15,-81.00,20.25
3.2486579999999776,-716.30859,-668.45703,938.96484,148.90244,-56.28049,121.46342,0.15,-81.00,20.25
3.2514039999999795,-690.91797,-698.24219,917.48047,147.86586,-52.74390,117.98781,0.15,-81.00,20.25
3.2540900000000192,-713.86719,-725.09766,925.29297,149.87805,-55.97561,120.06097,0.15,-81.00,20.25
3.256836000000021,-703.61328,-745.11719,923.33984,151.28049,-53.96341,120.97561,0.15,-81.00,20.25
3.2595830000000205,-694.33594,-759.76562,899.90234,151.34146,-48.41463,119.20731,0.15,-81.00,20.25
3.262268000000063,-693.84766,-768.06641,894.53125,152.98781,-47.74390,119.57317,0.15,-81.00,20.25
3.265015000000062,-697.26562,-786.62109,878.41797,150.00000,-47.50000,119.75610,0.60,-81.90,20.70
3.267700999999988,-679.19922,-768.55469,874.02344,147.50000,-46.89024,116.52439,0.60,-81.90,20.70
3.27044699999999,-694.82422,-803.71094,873.04687,146.28049,-45.06097,111.82927,0.60,-81.90,20.70
3.27313300000003,-709.96094,-796.87500,883.78906,147.01219,-44.14634,112.25610,0.60,-81.90,20.70
3.275818000000072,-708.00781,-864.25781,904.78516,146.58537,-35.24390,107.13415,1.20,-82.50,19.05
3.2785650000000714,-711.91406,-867.67578,879.88281,147.37805,-36.64634,107.31707,1.20,-82.50,19.05
3.28125,-703.61328,-892.57812,890.62500,146.82927,-33.10976,103.84146,1.20,-82.50,19.05
3.2839969999999994,-701.17187,-958.49609,849.60937,146.09756,-33.59756,100.91463,1.95,-81.00,21.60
3.2866820000000416,-741.69922,-996.58203,865.72266,142.92683,-32.68293,99.32927,1.95,-81.00,21.60
3.289429000000041,-702.63672,-965.82031,866.21094,145.60976,-32.19512,95.60976,1.95,-81.00,21.60
3.2921150000000807,-707.03125,-1010.25391,843.75000,143.90244,-29.26829,96.34146,1.95,-81.00,21.60
3.2948610000000826,-746.09375,-1024.41406,854.49219,137.74390,-27.86585,91.46342,1.05,-80.40,20.70
3.297608000000082,-728.51562,-1078.61328,815.42969,139.32927,-29.69512,89.51219,1.05,-80.40,20.70
3.3002930000000106,-733.39844,-1081.05469,825.68359,135.06097,-30.60976,87.74390,1.05,-80.40,20.70
3.3029790000000503,-723.63281,-1064.45313,831.05469,132.01219,-27.98780,91.15854,3.15,-80.40,20.70
3.305725000000052,-758.78906,-1109.37500,825.19531,131.76830,-26.46342,88.17073,3.15,-82.35,21.15
3.3084720000000516,-765.13672,-1124.02344,819.82422,128.96341,-25.73171,83.90244,3.15,-82.35,21.15
3.3111579999999776,-765.13672,-1110.83984,808.10547,127.68293,-29.26829,83.35366,3.15,-82.35,21.15
3.3139039999999795,-738.76953,-1097.16797,801.26953,128.47562,-27.86585,78.90244,4.65,-80.40,22.20
3.316650999999979,-744.14062,-1161.62109,774.41406,125.67073,-25.54878,80.42683,4.65,-80.40,22.20
3.319396999999981,-735.83984,-1139.64844,787.10937,127.80488,-25.73171,77.37805,4.65,-80.40,22.20
3.3220830000000205,-723.14453,-1116.69922,773.43750,127.43903,-29.39024,75.79269,4.65,-80.40,22.20
3.3248290000000225,-736.32812,-1101.56250,746.58203,126.70731,-24.75610,71.09756,2.85,-82.35,21.45
3.327576000000022,-706.05469,-1094.72656,758.30078,125.91463,-25.24390,73.04878,2.85,-82.35,21.45
3.3302620000000616,-706.54297,-1095.21484,740.72266,127.19512,-24.93902,70.79269,2.85,-82.35,21.45
3.3330080000000635,-690.42969,-1088.86719,744.62891,122.98781,-20.18293,67.98781,6.15,-81.90,21.75
3.335755000000063,-692.87109,-1117.67578,754.39453,123.10976,-19.81707,64.69512,6.15,-81.90,21.75
3.3385010000000648,-646.48437,-1121.09375,730.95703,127.56097,-12.19512,67.13415,6.15,-81.90,21.75
3.341186999999991,-626.46484,-1084.47266,745.11719,124.02439,-7.56098,59.81707,6.15,-81.90,21.75
3.3439329999999927,-561.03516,-1081.54297,744.14062,125.06097,-2.62195,64.14634,6.15,-81.90,21.75
3.3466190000000324,-591.79687,-1125.97656,761.23047,124.14634,2.25610,63.78049,6.15,-81.90,21.75
