Tiempo,AccX,AccY,AccZ,GyrX,GyrY,GyrZ,MagX,MagY,MagZ
0.0,110,112,8392,-9,-2,-11,-4,124,-265
0.021999999999934516,82,74,8376,-15,-4,-8,-6,120,-254
0.03400000000056025,76,120,8422,-12,-3,-7,-7,118,-251
0.056000000000494765,86,100,8404,-14,-3,-5,-10,110,-256
0.07800000000042928,116,90,8330,-15,2,-10,-15,120,-256
0.09000000000014552,62,142,8368,-13,-6,-9,-7,126,-260
0.11200000000008004,100,142,8372,-13,-2,-7,-10,117,-249
0.12399999999979627,122,106,8358,-10,-3,-7,-9,121,-248
0.14600000000064028,126,98,8376,-7,-2,-11,-7,118,-265
0.15800000000035652,52,102,8352,-10,-8,-6,-14,116,-253
0.18000000000029104,56,122,8380,-15,-2,-10,-10,120,-254
0.20200000000022555,90,88,8386,-10,-1,-12,-13,127,-252
0.2139999999999418,66,114,8378,-12,-1,-2,-8,117,-261
0.2359999999998763,96,104,8342,-15,-3,-8,-8,120,-261
0.24800000000050204,58,94,8354,-9,-1,-7,-15,117,-254
0.27000000000043656,66,132,8372,-16,0,-4,-12,116,-258
0.2820000000001528,130,146,8358,-13,-4,-13,-4,121,-255
0.3040000000000873,70,102,8368,-15,-2,-7,-16,108,-258
0.32600000000002183,138,104,8430,-12,2,-5,0,113,-260
0.33800000000064756,94,132,8366,-12,-8,-12,-10,115,-247
0.3600000000005821,82,78,8348,-6,-3,-9,1,125,-256
0.3720000000002983,90,96,8360,-16,-3,-9,-9,118,-258
0.39400000000023283,66,84,8306,-14,-5,-9,-7,118,-258
0.40599999999994907,76,130,8394,-12,-1,-8,-2,116,-255
0.4279999999998836,130,132,8412,-15,-2,-7,-13,122,-259
0.4400000000005093,88,94,8304,-13,0,-11,-13,120,-259
0.46200000000044383,122,128,8374,-9,-2,-6,-6,112,-264
0.48400000000037835,98,62,8370,-13,-5,-11,-9,113,-258
0.4960000000000946,88,52,8320,-14,0,-7,-16,121,-251
0.5180000000000291,82,114,8380,-10,2,-4,-10,110,-259
0.5300000000006548,96,142,8390,-13,-2,-11,-13,127,-256
0.5520000000005894,64,132,8380,-8,-2,-8,-13,120,-256
0.5640000000003056,102,124,8356,-11,-5,-8,-4,121,-260
0.5860000000002401,90,134,8376,-17,1,-13,-7,116,-258
0.6080000000001746,122,114,8338,-11,-3,-11,-14,118,-255
0.6199999999998909,54,146,8316,-9,-4,-10,-12,126,-262
0.6419999999998254,40,162,8384,-9,-1,-6,-12,121,-260
0.6540000000004511,106,110,8388,-8,1,-8,-8,120,-254
0.6760000000003856,78,100,8404,-12,-1,-12,1,122,-252
0.6880000000001019,52,122,8320,-10,-2,-7,-20,115,-264
0.7100000000000364,82,124,8360,-13,-2,-12,-12,126,-258
0.7319999999999709,118,124,8360,-16,3,-5,-14,121,-262
0.7489980000000287,76,108,8334,-6,-2,-4,-15,115,-254
0.761000000000422,100,98,8364,-12,-3,-8,-16,121,-248
0.7830000000003565,112,98,8376,-9,-5,-8,-4,108,-258
0.7950000000000728,62,76,8378,-14,-4,-8,-15,107,-256
0.8170000000000073,102,132,8350,-15,-3,-9,-8,120,-254
0.829000000000633,62,114,8348,-14,2,-9,-6,112,-264
0.8510000000005675,116,100,8354,-10,-4,-12,-19,118,-262
0.873000000000502,36,112,8396,-14,-5,-10,-7,106,-251
0.8850000000002183,116,94,8372,-8,2,-11,-18,120,-252
0.9070000000001528,86,144,8350,-11,-3,-11,-18,115,-254
0.918999999999869,104,118,8360,-11,4,-10,-14,113,-262
0.9409999999998035,98,94,8350,-14,0,-12,-10,122,-256
0.9530000000004293,62,76,8328,-12,0,-10,-12,116,-260
0.9750000000003638,108,86,8342,-11,-3,-2,-20,120,-254
0.98700000000008,46,120,8378,-12,-3,-5,-12,121,-255
1.0090000000000146,82,134,8360,-12,-6,-8,-9,129,-255
1.030999999999949,94,124,8370,-12,-3,-9,-6,125,-252
1.0430000000005748,106,102,8324,-8,-3,-10,-15,112,-264
1.0650000000005093,46,128,8350,-6,-5,-12,-14,121,-248
1.0770000000002256,86,118,8348,-14,-2,-6,-8,112,-252
1.09900000000016,64,80,8378,-9,4,-10,-8,127,-249
1.1109999999998763,66,82,8386,-11,1,-11,-8,120,-252
1.1329999999998108,112,112,8314,-19,-3,-6,-16,126,-258
1.1550000000006548,76,130,8348,-10,-2,-7,-13,122,-259
1.167000000000371,132,66,8358,-12,1,-6,-26,118,-260
1.1890000000003056,94,96,8364,-13,-5,-9,-10,117,-256
1.2010000000000218,44,114,8354,-9,-5,-11,-13,120,-259
1.2229999999999563,68,114,8358,-9,-1,-8,-13,120,-249
1.235000000000582,94,124,8404,-13,-4,-10,-12,121,-262
1.2570000000005166,90,138,8336,-13,2,-8,-10,122,-254
1.279000000000451,112,70,8384,-11,-5,-8,-15,117,-259
1.2910000000001673,74,134,8360,-11,-3,-9,-7,118,-260
1.3130000000001019,52,104,8386,-6,0,-6,-6,117,-264
1.324999999999818,110,124,8386,-17,-5,-7,-10,125,-261
1.3469999999997526,100,136,8370,-10,-6,-6,-8,110,-252
1.3590000000003783,70,158,8342,-12,-1,-9,-9,118,-253
1.3810000000003129,98,114,8384,-11,-7,-5,-14,129,-265
1.393000000000029,96,92,8342,-9,3,-7,-16,118,-251
1.4149999999999636,136,112,8308,-14,-1,-8,-19,124,-262
1.4369999999998981,82,88,8410,-15,-7,-8,-8,115,-259
1.4490000000005239,78,102,8378,-13,-3,-8,-7,118,-270
1.4710000000004584,112,114,8384,-8,-3,-10,-9,116,-260
1.4830000000001746,88,78,8324,-9,-3,-6,-9,116,-255
1.5050000000001091,54,120,8354,-9,0,-8,-9,113,-265
1.5169999999998254,84,110,8380,-11,-2,-9,-7,118,-258
1.53899999999976,144,102,8374,-12,1,-7,-6,120,-249
1.561000000000604,60,136,8386,-13,-4,-8,-9,118,-262
1.5730000000003201,50,64,8328,-17,-6,-3,-15,110,-259
1.5950000000002547,98,118,8398,-6,-3,-8,-13,122,-247
1.606999999999971,76,112,8388,-13,0,-8,1,122,-254
1.6289999999999054,88,114,8338,-10,-4,-8,-10,115,-256
1.6410000000005311,32,116,8338,-11,0,-9,-16,116,-267
1.6630000000004657,88,90,8384,-9,-4,-9,-9,126,-243
1.675000000000182,112,94,8374,-13,-4,-6,-20,112,-254
1.6970000000001164,86,166,8374,-10,-2,-11,-3,125,-261
1.719000000000051,56,118,8356,-11,-4,-6,-4,118,-260
1.7309999999997672,94,100,8394,-12,4,-8,-15,117,-256
1.7530000000006112,94,126,8390,-11,-7,-8,-19,103,-253
1.7650000000003274,90,138,8362,-13,0,-13,-19,116,-253
1.787000000000262,80,66,8334,-14,-3,-10,-18,120,-264
1.7989999999999782,130,108,8392,-10,-2,-9,-9,116,-251
1.8209999999999127,92,146,8366,-15,-4,-6,-3,120,-273
1.8429999999998472,-2180,-90,8298,-24,-4,-651,-8,117,-252
1.855000000000473,-906,-6330,6376,-22,44,829,-9,108,-267
1.8770000000004075,1808,1062,8498,-124,61,-495,-2,116,-265
1.8890000000001237,-1092,-190,8378,-190,56,-227,-1,117,-268
1.9110000000000582,2158,628,7878,-72,-1027,-903,-3,127,-252
1.9229999999997744,32,-684,8520,-150,-1025,-866,-6,130,-249
1.9450000000006185,712,-596,11258,-598,488,-1313,2,113,-251
1.967000000000553,-1344,-628,9720,294,1814,-1178,-3,117,-247
1.9790000000002692,-1840,-692,8920,360,652,-761,-24,126,-234
2.0010000000002037,-894,116,12590,878,2283,-396,-26,116,-234
2.01299999999992,-1632,284,12224,1045,2965,-476,-50,124,-246
2.0349999999998545,-2128,-334,6350,1331,3269,-258,-119,107,-237
2.04700000000048,-2838,28,6174,1033,1447,50,-163,110,-242
2.0690000000004147,-1586,360,7308,880,679,189,-203,98,-217
2.0910000000003492,-1500,660,6982,705,-1424,254,-236,99,-213
2.1030000000000655,-606,1246,7134,730,-3635,64,-296,74,-218
2.125,-516,1308,10474,691,-3194,-124,-322,55,-219
2.1370000000006257,-598,1390,9622,875,-613,33,-347,49,-240
2.1590000000005602,-298,2044,11294,851,493,67,-375,37,-219
2.1710000000002765,-1194,1854,8016,1087,1823,-113,-431,10,-164
2.193000000000211,-662,1678,8070,892,969,-117,-460,-5,-102
2.2049999999999272,-1630,2038,8362,748,-420,-27,-492,-13,-60
2.2269999999998618,-1892,2504,11388,951,-853,316,-501,-7,-4
2.2489999999997963,-1020,2556,10052,1190,-520,336,-506,-22,86
2.261000000000422,-970,2732,11098,1313,-146,160,-484,-5,145
2.2830000000003565,-1870,2702,9270,1427,453,241,-463,1,182
2.2950000000000728,-1780,2982,9124,1288,-36,223,-414,22,243
2.3170000000000073,-2390,3440,9936,1322,-58,406,-313,72,271
2.329000000000633,-3776,2268,8896,1883,-306,506,-274,82,276
2.3510000000005675,-2718,3906,7714,1768,-612,904,-214,110,264
2.3630000000002838,-1406,4076,9810,1387,-206,732,-176,136,241
2.3850000000002183,-460,3626,7982,1488,365,550,-121,162,212
2.407000000000153,-1834,3774,7318,1564,247,562,-87,159,188
2.418999999999869,-1188,4042,7622,1336,550,676,-79,172,167
2.4409999999998035,726,4838,6744,1728,366,691,-59,173,135
2.4530000000004293,-1722,3162,5742,1651,307,834,-36,177,98
2.475000000000364,-686,4418,6358,1609,149,891,-21,197,83
2.48700000000008,-206,4304,5184,1383,170,874,-30,173,63
2.5090000000000146,-650,750,4878,1485,-41,995,-32,186,63
2.530999999999949,-904,5378,7114,1447,-525,499,-42,193,32
2.543000000000575,2458,3712,4380,1140,282,845,-41,192,38
2.5650000000005093,-320,5072,5336,1087,-472,424,-36,189,19
2.5770000000002256,576,5016,5514,1214,-43,526,-38,197,9
2.59900000000016,534,4574,4532,1154,206,346,-39,196,-1
2.6109999999998763,-1200,4950,4804,1177,-160,-59,-46,187,-11
2.632999999999811,2278,5758,5036,1065,-459,542,-46,184,-11
2.655000000000655,964,5658,4782,1076,-170,410,-44,203,-17
2.667000000000371,-60,5684,4442,1090,708,368,-48,197,-23
2.6890000000003056,342,5802,4272,1052,840,442,-46,189,-26
2.701000000000022,700,5842,4700,1006,571,462,-46,189,-45
2.7229999999999563,-868,6272,5328,1013,546,665,-61,211,-46
2.735000000000582,400,6442,3642,1107,399,688,-55,187,-50
2.75199800000064,640,6618,3540,1019,-215,739,-65,194,-40
2.774000000000342,-230,6958,5028,931,-215,531,-54,173,-60
2.7960000000002765,-378,7120,4078,1053,216,477,-54,198,-56
2.8079999999999927,88,6776,4236,1122,737,568,-70,184,-62
2.8299999999999272,650,6562,2776,1011,561,634,-70,189,-69
2.842000000000553,1120,6668,3378,917,499,616,-61,186,-65
2.8640000000004875,1268,6872,3638,958,433,584,-70,187,-78
2.8760000000002037,1160,6758,3188,977,325,439,-61,183,-84
2.8980000000001382,664,6796,2458,901,55,393,-81,186,-84
2.9099999999998545,990,6944,3118,897,144,456,-78,180,-92
2.931999999999789,1316,6716,2720,860,163,429,-67,184,-95
2.954000000000633,1798,6728,2308,776,161,374,-82,189,-107
2.9660000000003492,1038,7066,2900,757,487,394,-82,182,-102
2.9880000000002838,1702,6998,2928,782,683,439,-87,182,-98
3.0,1742,6930,2582,827,858,426,-81,188,-103
3.0219999999999345,870,6726,2792,845,1030,561,-83,180,-113
3.0340000000005602,1584,6480,1624,823,1041,347,-88,188,-108
3.0560000000004948,2458,6800,1560,630,836,390,-93,178,-115
3.0780000000004293,2256,6862,1590,610,840,355,-95,173,-115
3.0900000000001455,1682,6906,2238,555,797,267,-98,168,-120
3.11200000000008,1962,6890,1700,523,796,195,-104,169,-114
3.1239999999997963,1734,6614,1798,426,840,164,-105,175,-120
3.1460000000006403,838,6978,2216,326,843,72,-99,172,-112
3.1580000000003565,58,7236,2576,318,887,129,-108,167,-112
3.180000000000291,126,7270,3016,259,796,266,-101,154,-121
3.2020000000002256,840,7226,3350,328,987,389,-104,162,-114
3.213999999999942,1258,7314,3124,382,832,396,-106,167,-112
3.2359999999998763,1378,7290,2658,415,846,362,-119,170,-106
3.248000000000502,1336,7288,2198,346,764,350,-118,169,-117
3.2700000000004366,888,7286,2230,365,883,285,-119,175,-113
3.282000000000153,1156,7262,1980,313,948,319,-121,156,-100
3.3040000000000873,1110,7548,2722,271,1199,363,-118,164,-112
3.3159999999998035,1528,7316,2590,262,1181,450,-118,159,-102
3.3380000000006476,2054,7464,2858,294,984,349,-131,153,-103
3.360000000000582,1792,7180,2228,298,968,370,-124,163,-103
3.3720000000002983,1676,7228,2200,246,940,371,-130,156,-90
3.394000000000233,1790,7216,2250,146,740,417,-128,164,-105
3.405999999999949,1864,7462,3168,164,824,364,-142,149,-109
3.4279999999998836,1618,7216,2534,310,1172,375,-136,160,-89
3.4400000000005093,1990,7090,2126,295,1079,378,-133,151,-93
3.462000000000444,1862,7086,2338,214,791,431,-142,151,-98
3.4840000000003783,2208,7154,2812,216,844,458,-146,158,-99
3.4960000000000946,2026,7126,2424,229,717,405,-141,150,-84
3.518000000000029,2202,7166,1852,233,612,380,-146,150,-92
3.530000000000655,2092,7484,1910,220,649,314,-150,151,-93
3.5520000000005894,1538,7274,900,120,836,261,-155,146,-100
3.5640000000003056,2034,7182,2082,185,810,475,-145,146,-93
3.58600000000024,2352,7404,1936,200,705,405,-151,148,-87
3.6080000000001746,2360,7642,2040,239,801,315,-148,148,-82
3.619999999999891,2068,7438,1686,122,734,233,-150,141,-81
3.6419999999998254,1392,7392,1734,97,797,259,-163,148,-89
3.654000000000451,2036,7588,1742,32,668,309,-157,139,-81
3.6760000000003856,1516,7532,2328,44,718,264,-162,136,-76
3.688000000000102,2072,7332,2158,123,953,359,-162,139,-76
3.7100000000000364,2996,7236,2210,116,879,342,-162,146,-66
3.7219999999997526,2920,7534,2490,164,739,232,-164,139,-74
3.7440000000005966,2230,7522,2334,173,576,193,-156,140,-63
3.766000000000531,1376,7268,2024,261,923,173,-173,140,-72
3.7780000000002474,1352,7126,1198,152,886,302,-164,131,-69
3.800000000000182,1778,7240,1216,25,834,383,-169,134,-66
3.811999999999898,1734,7526,1940,11,714,412,-179,134,-69
3.8339999999998327,1798,7788,2648,71,833,419,-163,132,-68
3.8460000000004584,2030,7412,1490,139,998,483,-176,129,-59
3.868000000000393,2218,7090,1324,40,849,491,-173,117,-49
3.8900000000003274,1960,7452,2090,-62,614,499,-178,125,-51
3.9020000000000437,2102,7500,2872,-23,805,500,-186,126,-50
3.923999999999978,1800,7348,2286,5,881,498,-186,139,-45
3.936000000000604,2868,7236,2796,29,840,443,-190,120,-41
3.9580000000005384,3274,7260,3320,60,741,355,-185,120,-37
3.9700000000002547,3116,7210,3244,105,993,299,-175,117,-32
3.992000000000189,3160,7180,2832,182,1146,253,-176,116,-43
4.014000000000124,2318,7170,2192,142,921,243,-182,105,-29
4.02599999999984,2294,6886,2042,90,1042,357,-176,116,-28
4.0479999999997744,3078,7094,2750,-76,737,382,-191,121,-26
4.0600000000004,2826,7416,3302,-48,661,346,-181,116,-28
4.082000000000335,2644,7346,3240,45,632,293,-175,110,-20
4.094000000000051,2934,7220,3126,88,651,239,-187,107,-8
4.1159999999999854,2882,7038,2470,34,492,253,-179,113,-16
4.128000000000611,2938,7324,3254,-21,448,241,-178,107,-3
4.150000000000546,2618,7532,3308,24,532,264,-184,111,-14
4.17200000000048,2278,7432,2900,90,647,234,-179,101,-7
4.1840000000001965,2460,7136,2136,57,683,307,-188,106,-2
4.206000000000131,2320,7144,2818,1,650,392,-181,101,-11
4.217999999999847,3084,7106,3470,-3,773,294,-180,102,1
4.239999999999782,2560,7050,3082,45,759,284,-185,102,8
4.2520000000004075,2932,6982,2912,55,631,329,-196,101,-4
4.274000000000342,3004,6772,3314,68,531,223,-185,102,5
4.2960000000002765,2960,6482,2844,68,652,243,-188,91,11
4.307999999999993,3278,6654,2806,-46,398,245,-190,99,5
4.329999999999927,3280,7040,3604,-44,247,207,-176,108,7
4.342000000000553,3486,7176,3346,70,292,168,-185,92,13
4.3640000000004875,3406,7126,3592,100,159,150,-184,101,16
4.376000000000204,3462,6832,2934,98,-70,131,-192,94,17
4.398000000000138,3402,6844,2832,50,-153,13,-188,101,11
4.410291000000143,3430,6940,3480,45,129,1,-187,105,22
4.431999999999789,3400,7070,3244,46,206,-29,-179,101,11
4.454000000000633,3218,7192,3506,64,3,-75,-185,105,3
4.466000000000349,3440,7142,3470,151,-57,-150,-190,110,13
4.488000000000284,3010,7176,3202,151,-300,-142,-187,105,17
4.5,2728,7100,3012,147,-311,-146,-191,96,7
4.5219999999999345,2668,6932,2740,124,-332,-124,-182,107,13
4.53400000000056,2786,7042,3108,130,-162,-146,-181,111,9
4.556000000000495,3240,6950,2942,88,-188,-147,-179,103,4
4.578000000000429,2966,6946,3186,112,-180,-194,-187,105,5
4.5900000000001455,3166,6912,2882,129,-133,-196,-191,111,7
4.61200000000008,3420,6760,2982,130,-280,-215,-176,113,0
4.623999999999796,3524,6866,2660,149,-275,-225,-192,105,5
4.64600000000064,3742,6668,2454,79,-428,-257,-174,106,-2
4.6580000000003565,3490,6914,2906,15,-580,-316,-180,112,-3
4.680000000000291,3032,7200,3078,42,-636,-335,-190,115,-1
4.7020000000002256,3346,7360,3018,89,-657,-412,-179,116,-7
4.713999999999942,2860,7044,2878,162,-572,-465,-190,112,-8
4.735999999999876,2948,7078,2164,114,-769,-460,-175,112,-3
4.752997999999934,2990,7262,2238,2,-1001,-468,-182,107,-20
4.765000000000327,2436,7476,2750,42,-1060,-483,-193,108,-14
4.787000000000262,2328,7486,2282,13,-945,-501,-176,116,-19
4.798999999999978,2254,7498,1822,5,-804,-570,-187,127,-17
4.820999999999913,2064,7570,2212,-28,-837,-514,-184,121,-28
4.842999999999847,2008,7512,2422,50,-536,-500,-178,127,-29
4.855000000000473,2206,7232,1558,7,-811,-491,-178,132,-32
4.8770000000004075,1966,7498,2352,-110,-1160,-417,-175,120,-37
4.889000000000124,1862,7956,2744,-73,-1243,-373,-182,130,-44
4.911000000000058,1580,7836,2680,131,-646,-457,-174,134,-43
4.9229999999997744,1808,7274,1014,97,-641,-396,-176,126,-38
4.9450000000006185,2114,7280,1072,-134,-1160,-292,-170,130,-51
4.967000000000553,2088,7870,2810,-208,-1571,-204,-168,130,-51
4.979000000000269,2018,7830,2516,-51,-1385,-286,-173,143,-51
5.001000000000204,2158,7592,1884,10,-1365,-402,-182,132,-58
5.01299999999992,2434,7426,1564,45,-1311,-474,-163,132,-56
5.0349999999998545,2262,7178,1270,68,-804,-527,-171,141,-64
5.04700000000048,1894,7412,1302,-126,-1129,-448,-159,136,-71
5.069000000000415,1512,7770,1978,-144,-1373,-374,-163,145,-68
5.081000000000131,1724,7860,2292,-38,-1285,-389,-161,145,-84
5.1030000000000655,1964,7266,1068,66,-942,-488,-168,145,-80
5.125,1772,7260,1082,-65,-1028,-480,-156,145,-72
5.137000000000626,1364,7470,1322,-118,-1017,-486,-152,139,-90
5.15900000000056,1658,7474,1446,-110,-1032,-409,-156,150,-92
5.1710000000002765,1406,7408,1664,-136,-901,-412,-155,149,-95
5.193000000000211,1738,7356,2076,-91,-447,-370,-152,151,-95
5.204999999999927,1278,7432,2532,-19,59,-284,-146,145,-92
5.226999999999862,1298,8444,2754,-1,154,-189,-140,149,-98
5.248999999999796,1502,7494,1268,160,-98,-312,-155,151,-102
5.261000000000422,1396,7524,700,5,-593,-441,-141,155,-101
5.2830000000003565,1292,7744,1110,-128,-1210,-366,-147,154,-105
5.295000000000073,1666,8046,2568,-162,-1292,-416,-146,153,-101
5.317000000000007,1530,7824,1660,-55,-1108,-538,-145,154,-109
5.329000000000633,1288,7852,2658,-57,-1159,-530,-139,153,-108
5.3510000000005675,1364,7738,1452,43,-785,-466,-135,156,-105
5.363000000000284,1546,7984,2020,-33,-1121,-417,-133,164,-107
5.385000000000218,1062,7834,1600,31,-1016,-495,-131,160,-115
5.407000000000153,876,7914,1374,-15,-1248,-515,-133,154,-117
5.418999999999869,754,7878,1476,4,-1065,-496,-121,156,-126
5.4409999999998035,362,7810,1036,-98,-1313,-465,-121,151,-121
5.453000000000429,324,7966,1554,-128,-1446,-456,-117,163,-127
5.475000000000364,596,8020,1758,-93,-1422,-457,-111,169,-129
5.48700000000008,70,7940,1436,-55,-1385,-452,-100,163,-137
5.5090000000000146,264,7994,2082,2,-972,-375,-107,165,-137
5.530999999999949,812,7834,1096,-17,-1100,-342,-110,165,-132
5.543000000000575,516,8152,1784,-56,-1242,-380,-92,169,-141
5.565000000000509,448,7864,1274,2,-1094,-384,-93,168,-132
5.5770000000002256,298,8042,1458,-76,-1255,-388,-94,174,-148
5.59900000000016,598,8010,1558,9,-1097,-327,-82,167,-138
5.610999999999876,672,7922,1416,-46,-1270,-361,-89,172,-148
5.632999999999811,444,7956,1612,-9,-1053,-405,-76,170,-151
5.655000000000655,230,7896,1484,30,-867,-391,-88,175,-149
5.667000000000371,68,7768,894,20,-788,-352,-71,165,-161
5.689000000000306,486,7986,2076,-25,-794,-298,-77,169,-150
5.701000000000022,-28,8060,1924,125,-344,-308,-70,174,-160
5.722999999999956,110,7816,1310,218,158,-345,-58,172,-157
5.735000000000582,106,7712,266,96,-297,-280,-76,178,-151
5.757000000000517,20,7952,1268,15,-710,-254,-71,165,-161
5.769000000000233,-54,8056,1148,38,-933,-276,-61,178,-161
5.791000000000167,30,7900,674,39,-1212,-328,-66,170,-158
5.813000000000102,190,7906,1778,27,-1256,-310,-60,167,-162
5.824999999999818,-220,7854,996,92,-946,-344,-56,173,-156
5.846999999999753,-322,7924,954,52,-1086,-304,-50,174,-160
5.859000000000378,-482,7990,1078,61,-1065,-295,-50,169,-174
5.881000000000313,-334,7796,814,69,-1094,-292,-50,169,-169
5.893000000000029,236,7972,778,21,-1207,-247,-46,162,-162
5.914999999999964,-6,7884,1018,78,-1062,-318,-47,173,-170
5.936999999999898,-382,7956,1056,107,-806,-356,-36,172,-162
5.949000000000524,-184,7802,420,105,-757,-320,-37,170,-170
5.971000000000458,-360,7890,516,26,-1013,-248,-36,174,-169
5.983000000000175,-282,8016,1016,40,-1114,-281,-33,159,-176
6.005000000000109,-356,8082,1080,35,-1167,-333,-21,172,-172
6.016999999999825,-550,7992,948,71,-1079,-356,-26,169,-174
6.03899999999976,-502,8002,964,83,-1035,-344,-18,173,-182
6.061000000000604,-904,7978,1088,89,-932,-326,-13,163,-180
6.07300000000032,-916,8094,840,111,-948,-270,-9,169,-174
6.095000000000255,-874,8024,514,126,-1003,-283,-8,163,-178
6.106999999999971,-750,8026,636,89,-1099,-234,-2,164,-176
6.128999999999905,-1224,8130,908,144,-922,-323,-3,158,-182
6.141000000000531,-668,7956,-2,121,-1021,-309,1,168,-175
6.163000000000466,-966,8170,898,70,-1113,-241,3,165,-180
6.175000000000182,-974,8316,974,89,-1060,-211,3,160,-178
6.197000000000116,-900,8138,576,168,-795,-171,19,162,-193
6.219000000000051,-856,8126,838,152,-669,-150,16,156,-181
6.230999999999767,-730,8066,778,144,-704,-83,15,175,-192
6.253000000000611,-860,8170,948,139,-838,-66,13,163,-185
6.265000000000327,-460,7888,840,204,-551,-88,16,162,-181
6.287000000000262,-470,7870,436,137,-724,-128,16,151,-181
6.298999999999978,-282,7808,344,75,-1097,-126,16,159,-198
6.320999999999913,-494,7888,1154,78,-1118,-178,24,164,-188
6.342999999999847,-400,7746,600,98,-1118,-223,29,156,-184
6.355000000000473,-1150,7910,1044,80,-1171,-241,37,165,-175
6.3770000000004075,-664,7694,590,126,-929,-255,29,162,-179
6.389000000000124,-746,7800,800,66,-911,-230,32,160,-182
6.411000000000058,-778,7868,1172,119,-837,-290,44,160,-187
6.4229999999997744,-954,7850,744,153,-820,-335,38,156,-188
6.4450000000006185,-1206,7728,420,122,-941,-322,42,150,-175
6.457000000000335,-1234,7786,1236,150,-795,-324,43,159,-181
6.479000000000269,-1100,7730,246,134,-832,-282,49,160,-173
6.501000000000204,-1342,7808,816,131,-684,-301,56,150,-178
6.51299999999992,-1512,7572,-42,127,-662,-285,54,158,-180
6.5349999999998545,-1654,7864,624,50,-854,-252,58,156,-181
6.54700000000048,-1148,7812,342,63,-895,-209,64,150,-178
6.569000000000415,-1852,7334,594,31,-951,-248,55,146,-181
6.581000000000131,-988,7894,2014,109,-1014,-105,70,151,-174
6.6030000000000655,-2022,7462,704,-36,-1077,-261,67,144,-174
6.625,-1332,7984,1568,23,-883,-274,67,146,-179
6.637000000000626,-1104,7820,494,139,-826,-194,71,145,-178
6.65900000000056,-1486,7880,738,129,-700,-281,77,139,-184
6.6710000000002765,-1520,7702,392,136,-689,-284,73,145,-173
6.693000000000211,-1446,7524,838,134,-825,-199,83,140,-166
6.704999999999927,-2288,7540,684,-48,-900,-202,85,148,-168
6.726999999999862,-1254,7918,322,201,-757,-247,84,141,-169
6.753998000000138,-1824,7812,-10,145,-829,-231,84,139,-164
6.766000000000531,-2218,7868,460,-3,-935,-234,89,141,-167
6.778000000000247,-1548,7866,1106,128,-610,-261,101,141,-169
6.800000000000182,-1728,7790,-38,129,-744,-281,98,140,-178
6.811999999999898,-1888,7940,730,29,-893,-230,92,139,-150
6.833999999999833,-1982,7870,710,89,-727,-243,108,134,-153
6.846000000000458,-2132,7820,424,136,-675,-237,105,137,-156
6.868000000000393,-2192,7852,558,128,-711,-166,107,132,-158
6.890000000000327,-2178,7744,876,191,-423,-120,96,134,-160
6.902000000000044,-2180,7794,486,132,-493,-123,102,127,-168
6.923999999999978,-2130,7942,716,212,-233,-152,105,127,-166
6.936000000000604,-2364,7678,-252,170,-550,-119,112,130,-163
6.958000000000538,-2116,7838,324,95,-740,-101,102,135,-156
6.970000000000255,-2232,7844,194,71,-815,-150,110,125,-163
6.992000000000189,-2274,7750,516,66,-695,-153,106,124,-162
7.014000000000124,-2076,7910,432,79,-649,-156,119,125,-149
7.02599999999984,-2110,7820,370,113,-482,-161,113,124,-164
7.0479999999997744,-1914,7856,470,114,-366,-219,111,116,-160
7.0600000000004,-2214,7916,52,108,-400,-251,118,129,-153
7.082000000000335,-3188,8078,136,94,-376,-214,117,122,-137
7.094000000000051,-3292,8228,344,57,-465,-58,117,122,-154
7.1159999999999854,-2664,8244,308,99,-547,78,118,118,-153
7.128000000000611,-2340,8064,424,132,-557,-50,122,120,-147
7.150000000000546,-1704,7882,382,169,-437,-54,117,112,-151
7.17200000000048,-1768,7840,706,147,-344,-140,115,115,-149
7.1840000000001965,-2138,7672,38,144,-323,-120,123,118,-143
7.206000000000131,-2024,7708,62,73,-459,-113,121,113,-162
7.217999999999847,-2264,7718,934,105,-288,-140,122,112,-147
7.239999999999782,-2152,7514,114,106,-250,-134,119,120,-154
7.2520000000004075,-2124,7506,606,102,-329,-103,133,113,-145
7.274000000000342,-2008,7446,130,86,-519,-95,128,118,-141
7.2960000000002765,-1916,7582,792,65,-506,-143,119,122,-147
7.307999999999993,-1988,7376,242,100,-302,-214,129,110,-158
7.329999999999927,-2044,7386,-88,28,-449,-197,141,115,-154
7.342000000000553,-2208,7786,1174,-4,-567,-134,136,110,-149
7.3640000000004875,-1784,7680,638,111,-278,-148,125,116,-145
7.376000000000204,-2034,7502,312,25,-447,-129,140,116,-155
7.398000000000138,-2092,7840,666,32,-338,-207,138,118,-136
7.4099999999998545,-2038,7670,448,54,-204,-175,130,106,-145
7.431999999999789,-2450,7602,512,12,-320,-144,129,107,-139
7.454000000000633,-2272,7780,402,13,-334,-130,130,113,-133
7.466000000000349,-2650,7794,312,60,-150,-161,134,110,-139
7.488000000000284,-2952,7820,478,50,-174,-184,138,106,-136
7.5,-2926,7692,162,30,-313,-99,130,106,-138
7.5219999999999345,-2862,7686,210,37,-263,-98,141,112,-135
7.53400000000056,-2888,7820,454,7,-353,-51,139,115,-135
7.556000000000495,-2698,7730,358,63,-183,-47,136,102,-135
7.578000000000429,-2370,7554,66,28,-193,-55,136,110,-147
7.5900000000001455,-2482,7606,174,-102,-631,15,131,102,-123
7.61200000000008,-2440,7958,1170,-44,-566,8,148,105,-125
7.623999999999796,-2418,7862,748,30,-387,-85,140,113,-136
7.64600000000064,-2522,8002,1038,79,-47,-98,133,106,-131
7.6580000000003565,-2724,7678,68,83,-60,-72,134,105,-137
7.680000000000291,-2634,7904,760,33,-96,-47,141,110,-125
7.7020000000002256,-2712,7760,392,84,-41,-21,139,110,-135
7.713999999999942,-2678,7636,476,41,-88,17,142,106,-131
7.735999999999876,-2584,7652,300,59,76,10,157,106,-124
7.748000000000502,-2378,7626,256,77,252,-24,145,106,-124
7.770000000000437,-2824,7572,206,9,102,38,138,106,-133
7.782000000000153,-2436,7634,392,52,231,52,144,105,-135
7.804000000000087,-2500,7630,118,-31,-102,90,139,110,-127
7.8159999999998035,-2288,7500,248,-14,-40,70,136,115,-123
7.838000000000648,-2086,7462,38,-59,-167,25,142,113,-136
7.860000000000582,-2402,7796,816,-98,-350,93,140,101,-136
7.872000000000298,-2284,7702,1030,-25,-29,39,142,103,-129
7.894000000000233,-2442,7630,156,-28,-11,8,145,101,-121
7.905999999999949,-1802,7528,362,-36,-22,22,138,111,-136
7.927999999999884,-2280,7692,888,-68,-149,33,134,105,-135
7.940000000000509,-2266,7658,260,-20,-45,-20,138,113,-133
7.962000000000444,-2160,7620,276,-48,1,-7,142,116,-131
7.984000000000378,-2310,7692,422,-79,-172,-7,148,102,-120
7.996000000000095,-2498,7864,822,-67,-190,30,138,106,-129
8.018000000000029,-2378,7744,650,-32,-51,-18,141,120,-120
8.030000000000655,-2714,7720,508,-32,45,-24,142,111,-126
8.05200000000059,-2572,7604,-14,-40,-2,53,134,110,-130
8.064000000000306,-2482,7724,784,-124,-271,94,146,105,-127
8.08600000000024,-2264,7846,814,-59,-13,58,140,118,-133
8.108000000000175,-2108,7728,728,-27,132,33,147,106,-129
8.11999999999989,-2288,7716,240,-52,84,7,138,121,-131
8.141999999999825,-2468,7718,710,-26,320,31,136,102,-130
8.154000000000451,-2132,7688,558,-62,236,52,144,107,-125
8.176000000000386,-2474,7832,568,-47,150,43,147,108,-129
8.188000000000102,-2688,7620,-204,-60,72,56,136,112,-132
8.210000000000036,-2868,7800,580,-136,-146,116,140,113,-138
8.221999999999753,-2520,7900,832,-127,-87,150,135,106,-129
8.244000000000597,-2530,7880,644,-83,28,103,136,115,-132
8.266000000000531,-2380,7856,952,-34,273,95,136,112,-123
8.278000000000247,-2344,7784,566,-33,304,109,131,112,-127
8.300000000000182,-2824,7952,612,-26,296,146,136,120,-135
8.311999999999898,-2558,7782,290,-14,311,135,135,103,-141
8.333999999999833,-2984,7914,576,-71,186,158,145,108,-138
8.346000000000458,-2970,7830,520,-51,297,214,140,113,-138
8.368000000000393,-2622,7616,118,-74,293,269,129,115,-144
8.390000000000327,-2166,7850,868,-93,352,335,139,117,-142
8.402000000000044,-1920,7880,926,-49,467,285,133,124,-143
8.423999999999978,-2298,7674,172,-21,557,235,131,117,-132
8.436000000000604,-2248,7562,-92,-77,502,241,130,124,-143
8.458000000000538,-2432,7736,594,-142,458,299,129,120,-139
8.470000000000255,-2184,7690,244,-134,516,317,125,111,-141
8.49200000000019,-2194,7798,386,-103,490,282,123,126,-138
8.514000000000124,-2620,7750,508,-112,651,303,119,117,-137
8.52599999999984,-2678,7616,-64,-126,786,311,124,122,-139
8.547999999999774,-3254,7716,74,-126,882,360,116,126,-141
8.5600000000004,-2910,7594,-256,-143,881,437,118,124,-136
8.582000000000335,-2124,7378,-438,-192,937,499,124,145,-144
8.594000000000051,-1902,7528,-348,-314,660,544,115,127,-142
8.615999999999985,-1792,7794,430,-209,1116,484,106,126,-153
8.628000000000611,-1746,7806,-46,-219,1229,415,112,130,-156
8.650000000000546,-1268,8002,290,-240,1309,342,100,145,-154
8.67200000000048,-1610,7986,108,-237,1387,330,105,135,-151
8.684000000000196,-1840,8112,532,-297,1196,362,96,139,-155
8.706000000000131,-1222,8058,796,-283,1228,468,98,140,-156
8.717999999999847,-948,8000,988,-254,1322,356,94,136,-157
8.739999999999782,-1454,8108,1410,-168,1638,274,92,146,-150
8.75699799999984,-1426,8114,928,-142,1690,229,71,145,-166
8.769000000000233,-1954,8124,1174,-143,1759,234,77,141,-160
8.791000000000167,-1856,8120,1118,-132,1822,298,81,143,-168
8.813000000000102,-1464,7852,1060,-175,1737,391,75,151,-162
8.824999999999818,-1610,7872,1256,-220,1615,302,70,146,-162
8.846999999999753,-1282,7842,842,-160,1670,453,58,159,-174
8.859000000000378,-2020,7830,744,-170,1579,363,59,153,-166
8.881000000000313,-2376,7624,538,-171,1625,464,48,159,-174
8.893000000000029,-2794,7566,136,-213,1627,572,52,168,-180
8.914999999999964,-2466,7624,312,-222,1833,697,41,156,-179
8.936999999999898,-1460,7486,692,-258,2049,707,44,158,-180
8.949000000000524,318,7360,624,-300,2219,579,29,164,-179
8.971000000000458,704,7650,1638,-406,2003,485,15,170,-185
8.983000000000175,464,7860,1624,-387,1721,422,15,150,-180
9.00500000000011,-10,8090,1590,-346,1411,455,24,154,-167
9.016999999999825,-688,8458,1482,-321,1257,461,18,160,-170
9.03899999999976,-576,8500,786,-230,1293,464,14,162,-179
9.051000000000386,-632,8282,1844,-231,1475,580,6,170,-173
9.07300000000032,-648,8122,1552,-162,1543,499,-7,159,-169
9.095000000000255,-716,8154,1674,-224,1390,560,-12,172,-172
9.106999999999971,-348,8106,1672,-207,1306,628,-19,172,-169
9.128999999999905,-726,8070,1730,-210,1193,617,-14,174,-160
9.141000000000531,-356,8076,1898,-188,1250,678,-23,173,-170
9.163000000000466,-518,7868,1716,-187,1255,719,-30,178,-158
9.175000000000182,-222,8126,2184,-156,1178,761,-30,173,-158
9.197000000000116,6,7764,2024,-52,1374,770,-36,184,-164
9.219000000000051,314,7572,2098,-46,1502,782,-44,170,-158
9.230999999999767,440,7544,2108,-15,1474,743,-56,170,-156
9.253000000000611,-84,7406,1888,32,1605,757,-48,159,-153
9.265000000000327,472,7160,1544,10,1507,822,-66,163,-151
9.287000000000262,660,7196,2092,-2,1588,830,-55,174,-160
9.298999999999978,522,7050,1152,-90,1390,887,-72,172,-148
9.320999999999913,826,7116,1654,-215,1320,882,-87,169,-153
9.342999999999847,1444,7574,2564,-396,1161,803,-85,163,-149
9.355000000000473,690,7978,3088,-192,1197,695,-87,156,-138
9.377000000000407,418,6776,4824,-104,804,902,-98,170,-135
9.389000000000124,3316,7626,1632,-76,1363,1016,-92,159,-145
9.411000000000058,1816,7546,3190,-307,1348,646,-94,164,-136
9.422999999999774,1376,7350,3124,-214,1132,665,-106,162,-131
9.445000000000618,2712,7420,2572,-53,1088,735,-100,160,-123
9.457000000000335,1646,7366,4034,196,1239,690,-115,158,-135
9.47900000000027,2524,7476,978,30,1184,714,-116,167,-129
9.501000000000204,3260,7382,3278,-300,1108,904,-118,154,-119
9.51299999999992,2642,7406,3012,-156,613,627,-128,154,-121
9.534999999999854,2752,7520,3400,18,547,782,-138,149,-102
9.54700000000048,3044,8150,1778,80,432,657,-130,149,-112
9.569000000000415,2276,7064,2940,-56,371,695,-133,146,-112
9.581000000000131,4058,7296,3594,114,319,794,-138,149,-109
9.603000000000065,3386,6946,2656,188,647,687,-144,145,-118
9.625,3396,8378,2942,33,532,398,-147,146,-112
9.637000000000626,3190,7872,3760,-18,-388,611,-147,146,-98
9.65900000000056,-722,6368,2492,-242,-299,588,-150,144,-105
9.671000000000276,5592,7444,1214,287,-189,785,-147,151,-107
9.693000000000211,3100,6614,1754,122,-511,670,-155,139,-112
9.704999999999927,2766,6814,1224,-109,-466,660,-156,145,-111
9.726999999999862,2874,7186,3718,-288,340,1116,-161,130,-108
9.748999999999796,4506,7522,3248,-183,344,1156,-162,134,-119
9.761000000000422,2998,7670,4064,-180,153,1134,-167,129,-109
9.783000000000357,4166,7478,4974,88,1384,1543,-162,126,-109
9.795000000000073,5996,6376,3460,42,1364,1207,-181,121,-100
9.817000000000007,3706,6464,1702,81,583,1114,-175,107,-96
9.829000000000633,3442,6194,1618,-152,653,1309,-176,113,-98
9.851000000000568,3256,6112,662,-562,102,1465,-181,116,-100
9.863000000000284,3222,6258,1720,-584,-404,1619,-193,101,-93
9.885000000000218,3788,6050,1744,-561,-201,1896,-194,92,-94
9.907000000000153,4696,5148,1650,-716,-350,2053,-197,89,-94
9.918999999999869,5902,4914,1546,-969,-1163,1911,-199,84,-99
9.940999999999804,5828,5268,2538,-938,-1278,1822,-213,63,-100
9.95300000000043,5990,5254,4174,-762,-1127,1662,-213,68,-93
9.975000000000364,5878,4500,2040,-596,-474,1737,-220,65,-95
9.98700000000008,6744,4424,3218,-884,-753,1951,-216,54,-99
10.009000000000015,6716,4878,3604,-866,-502,1953,-215,48,-93
10.030999999999949,5904,4710,3346,-720,-201,1845,-225,45,-109
10.043000000000575,5780,4184,1894,-668,-377,1875,-222,37,-109
10.06500000000051,5516,3872,1848,-820,-937,2037,-238,29,-111
10.077000000000226,6098,3478,2722,-846,-1033,2154,-226,3,-106
10.09900000000016,7538,2942,2644,-745,-1058,2184,-236,-1,-108
10.110999999999876,7700,2838,3086,-792,-1280,2049,-236,-11,-120
10.13299999999981,7550,2924,3120,-592,-993,1893,-228,-13,-115
10.145285000000513,7254,2464,2828,-399,-614,1742,-226,-24,-123
10.167000000000371,7662,1830,1926,-304,-491,1633,-228,-29,-123
10.189000000000306,7424,1252,1300,-342,-410,1593,-231,-36,-132
10.201000000000022,7674,960,890,-447,-624,1663,-237,-35,-133
10.222999999999956,8076,914,1780,-457,-862,1657,-233,-51,-137
10.235000000000582,8754,712,1778,-489,-860,1515,-228,-51,-139
10.257000000000517,8458,776,2312,-439,-442,1130,-226,-54,-154
10.269000000000233,7944,774,2096,-255,65,928,-233,-67,-142
10.291000000000167,7422,306,700,-292,215,871,-230,-73,-153
10.313000000000102,7248,64,1214,-451,-102,1086,-226,-74,-154
10.324999999999818,7536,40,1798,-493,-516,1244,-231,-82,-144
10.346999999999753,9558,-278,1664,-399,-805,1207,-231,-74,-144
10.359000000000378,8948,-196,2584,-256,-1014,790,-221,-94,-154
10.381000000000313,8666,-548,1268,-60,-726,645,-214,-92,-168
10.393000000000029,9392,-88,1158,-119,-538,576,-216,-97,-154
10.414999999999964,8706,-892,-1284,-1,265,442,-220,-93,-164
10.436999999999898,9588,-564,2026,-201,-619,477,-225,-96,-164
10.449000000000524,9380,-528,1692,-161,-696,54,-217,-111,-167
10.471000000000458,8186,-196,2436,55,-411,54,-216,-102,-170
10.483000000000175,8362,-890,1158,293,6,57,-214,-105,-178
10.50500000000011,7970,-1234,-320,217,-17,205,-211,-99,-170
10.516999999999825,8372,-716,264,-355,-445,419,-210,-101,-174
10.53899999999976,7824,-700,240,-165,-339,349,-216,-105,-166
10.551000000000386,8916,-590,562,-248,-642,301,-204,-107,-170
10.57300000000032,8826,-1126,3408,-543,-1178,-175,-210,-111,-186
10.595000000000255,9576,-904,-1026,-92,-709,-274,-205,-106,-181
10.606999999999971,8472,-1018,978,-223,-1221,-357,-214,-107,-185
10.628999999999905,8600,-656,-108,-197,-1153,-358,-216,-99,-178
10.641000000000531,7804,-394,602,-178,-1233,-262,-199,-110,-192
10.663000000000466,8038,-410,480,71,-859,-136,-194,-94,-199
10.675000000000182,7718,-714,-528,76,-947,-5,-201,-96,-203
10.697000000000116,8752,-830,-352,12,-904,136,-192,-92,-197
10.719000000000051,8802,-608,-806,-148,-1444,12,-191,-86,-210
10.730999999999767,8202,-716,360,-63,-939,-57,-196,-98,-215
10.757998000000043,8564,-366,-84,130,-553,-245,-184,-91,-217
10.770000000000437,8836,-1042,-2020,181,-471,-269,-186,-101,-222
10.782000000000153,8370,-586,-1392,-140,-1206,-208,-184,-93,-212
10.804000000000087,8214,-580,-1790,-100,-1332,-139,-181,-101,-236
10.815999999999804,7036,-918,-2792,-240,-1848,151,-190,-89,-233
10.838000000000648,7500,-660,-1552,-376,-1761,652,-176,-91,-229
10.860000000000582,8540,-598,-1796,-355,-1489,779,-168,-92,-242
10.872000000000298,9026,148,-174,-213,-799,188,-157,-93,-253
10.894000000000233,8496,-376,-478,137,154,-144,-164,-91,-251
10.905999999999949,7560,-1004,-3452,152,-139,-117,-163,-87,-249
10.927999999999884,7602,-670,-2400,-38,-710,11,-162,-96,-248
10.94000000000051,7498,-1036,-3160,-74,-873,115,-159,-81,-251
10.962000000000444,7628,-750,-2408,-133,-1118,202,-148,-89,-254
10.984000000000378,7886,-738,-2440,1,-1327,116,-148,-94,-261
10.996000000000095,7950,-848,-2416,-27,-1358,78,-148,-97,-268
11.018000000000029,7054,-746,-2950,97,-977,-24,-140,-96,-270
11.030000000000655,6874,-1058,-3904,182,-837,-19,-128,-96,-270
11.05200000000059,6684,-1096,-3794,-59,-1222,184,-141,-87,-276
11.064000000000306,7316,-1188,-4174,-132,-1133,105,-121,-101,-260
11.08600000000024,6980,-1020,-4060,-187,-1003,41,-115,-94,-273
11.097999999999956,6670,-1016,-4296,-185,-1036,90,-121,-93,-274
11.11999999999989,6262,-916,-4032,-209,-961,110,-121,-103,-277
11.141999999999825,6410,-1192,-4816,-273,-823,123,-116,-96,-277
11.154000000000451,6462,-1078,-4720,-397,-948,214,-106,-91,-294
11.176000000000386,7152,-954,-4728,-396,-787,269,-100,-89,-295
11.188000000000102,7066,-720,-4158,-500,-1020,173,-102,-92,-290
11.210000000000036,6576,-532,-3998,-304,-728,17,-100,-87,-292
11.221999999999753,6188,-616,-4472,-223,-510,38,-96,-96,-291
11.244000000000597,5958,-554,-4534,-269,-608,190,-83,-82,-297
11.266000000000531,6814,-676,-4772,-244,-692,168,-88,-84,-295
11.278000000000247,6768,-734,-4310,-189,-741,100,-87,-88,-298
11.300000000000182,6540,-796,-4820,-172,-705,57,-77,-91,-294
11.311999999999898,6092,-826,-5052,-180,-810,73,-75,-81,-291
11.333999999999833,6284,-754,-5032,-191,-795,49,-75,-78,-301
11.346000000000458,6566,-908,-5072,-254,-851,109,-65,-81,-301
11.368000000000393,6574,-1020,-5518,-273,-948,40,-64,-74,-309
11.390000000000327,6466,-804,-5084,-293,-985,-95,-59,-77,-300
11.402000000000044,5742,-736,-5330,-230,-708,-151,-55,-83,-306
11.423999999999978,5658,-852,-5760,-233,-646,-129,-55,-68,-301
11.436000000000604,5600,-776,-5724,-294,-764,-108,-42,-87,-307
11.458000000000538,6564,-830,-5854,-367,-1049,-114,-54,-77,-307
11.470000000000255,6166,-598,-5158,-378,-1116,-297,-36,-70,-310
11.49200000000019,5336,-462,-5688,-300,-946,-463,-24,-63,-301
11.503999999999905,4738,-456,-6244,-367,-1017,-485,-27,-69,-304
11.52599999999984,4640,-388,-6414,-437,-1037,-430,-23,-72,-319
11.547999999999774,5582,-210,-6596,-471,-1303,-624,-25,-69,-309
11.5600000000004,4566,20,-6178,-675,-1369,-974,-8,-54,-314
11.582000000000335,3922,212,-6400,-676,-1443,-1088,-13,-64,-321
11.594000000000051,3464,784,-8742,-823,-3018,-1704,-7,-55,-317
11.615999999999985,2018,-200,-7014,-764,-2577,-1439,-7,-55,-308
11.628000000000611,1024,86,-6690,-840,-2542,-1127,14,-53,-310
11.650000000000546,284,204,-6698,-798,-2344,-697,27,-29,-314
11.67200000000048,478,954,-5252,-500,-1192,-139,33,-40,-306
11.684000000000196,1572,1110,-5644,-298,14,75,37,-51,-311
11.706000000000131,1102,1002,-6620,23,168,256,49,-29,-309
11.717999999999847,2350,1644,-5226,223,1027,331,49,-46,-304
11.739999999999782,2074,876,-6744,524,1225,538,41,-32,-313
11.752000000000407,3410,1128,-7616,448,599,606,32,-39,-302
11.774000000000342,3834,940,-8880,357,-89,578,27,-44,-311
11.796000000000276,4540,1288,-7308,182,-745,333,31,-30,-315
11.807999999999993,4486,1228,-7462,222,-1434,77,33,-58,-306
11.829999999999927,3904,1222,-6996,189,-1394,-126,36,-53,-308
11.842000000000553,3434,932,-7760,140,-1204,-247,47,-46,-297
11.864000000000487,2580,1064,-7972,3,-1660,-236,58,-45,-306
11.876000000000204,2552,902,-8152,79,-1977,-155,59,-46,-302
11.898000000000138,2030,1040,-7774,46,-2170,-223,56,-49,-297
11.920000000000073,1740,674,-8012,4,-1819,-179,81,-54,-292
11.931999999999789,1604,794,-8728,-153,-1557,-101,78,-46,-300
11.954000000000633,1140,978,-8230,-265,-1384,-298,90,-49,-295
11.96600000000035,208,516,-7760,-85,-996,-350,99,-50,-286
11.988000000000284,-180,376,-8766,-126,-1408,-266,101,-40,-282
12.0,-196,654,-8398,-207,-1570,-266,107,-49,-283
12.021999999999935,-634,698,-7912,-177,-2194,-17,113,-48,-277
12.03400000000056,-822,762,-7552,-62,-2139,46,110,-41,-280
12.056000000000495,-1036,944,-6360,55,-1624,55,134,-51,-276
12.07800000000043,-728,732,-8118,122,-1237,109,135,-40,-258
12.090000000000146,-396,722,-8178,116,-1195,101,135,-40,-258
12.11200000000008,-170,1148,-7460,117,-1533,88,138,-48,-255
12.123999999999796,-216,876,-8004,239,-1239,-12,153,-49,-247
12.14600000000064,-354,1176,-7526,183,-1852,-150,145,-50,-246
12.158000000000357,-1380,952,-8004,126,-1604,-287,157,-50,-251
12.180000000000291,-1342,814,-7698,61,-1091,-297,158,-46,-242
12.192000000000007,-1598,910,-8104,-48,-1249,-267,169,-48,-224
12.213999999999942,-1964,984,-7456,-28,-1099,-351,170,-46,-228
12.235999999999876,-2918,354,-8752,17,-2020,-307,170,-56,-230
12.248000000000502,-3490,556,-7538,-19,-2786,-267,163,-54,-230
12.270000000000437,-3754,592,-7292,50,-3455,-159,197,-67,-223
12.282000000000153,-4224,720,-6376,54,-2671,-157,185,-62,-197
12.304000000000087,-4614,484,-6554,20,-1681,-160,214,-62,-187
12.315999999999804,-5092,306,-6964,22,-1699,-94,207,-54,-190
12.338000000000648,-4962,416,-6700,-1,-1769,-67,207,-64,-161
12.360000000000582,-4840,562,-6394,-4,-1870,1,202,-62,-161
12.372000000000298,-4460,494,-6878,67,-1983,-19,205,-53,-155
12.394000000000233,-4290,668,-6364,-19,-1544,-170,219,-54,-149
12.405999999999949,-4696,620,-6436,-8,-1557,-244,222,-65,-131
12.427999999999884,-4974,678,-5934,-32,-1679,-296,224,-56,-132
12.44000000000051,-5392,584,-5702,-91,-950,-320,221,-72,-127
12.462000000000444,-5816,380,-6102,-83,-881,-221,221,-54,-120
12.484000000000378,-5238,532,-5996,-125,-853,-235,233,-72,-118
12.496000000000095,-5174,684,-5744,-235,-1006,-320,225,-58,-119
12.518000000000029,-6134,364,-5208,-284,-605,-370,230,-73,-109
12.530000000000655,-5996,520,-4756,-181,-615,-294,230,-55,-93
12.55200000000059,-5772,606,-5090,-115,-831,-316,226,-67,-103
12.564000000000306,-6258,586,-4722,-144,-729,-395,231,-69,-103
12.58600000000024,-6838,394,-4692,-97,-654,-395,220,-73,-100
12.597999999999956,-6718,518,-4528,40,-909,-304,234,-75,-93
12.61999999999989,-6824,254,-5324,75,-966,-262,221,-72,-82
12.641999999999825,-6514,482,-4554,14,-829,-329,233,-74,-82
12.654000000000451,-7536,-162,-5234,-53,-498,-339,225,-81,-86
12.676000000000386,-7134,182,-4336,35,-980,-146,227,-86,-78
12.688000000000102,-6974,198,-4510,13,-995,-167,240,-77,-58
12.710000000000036,-7484,-26,-4384,-99,-665,-230,230,-86,-64
12.721999999999753,-7874,-98,-4310,-134,-861,-128,224,-74,-65
12.744000000000597,-7462,42,-4094,-169,-489,-115,228,-77,-63
12.760998000000654,-7520,136,-3554,-165,-337,-83,230,-88,-62
12.783000000000357,-7780,-102,-3770,-55,-237,-74,230,-91,-71
12.795000000000073,-7136,274,-3358,98,-680,-17,228,-89,-60
12.817000000000007,-7462,-10,-3778,85,-431,-91,230,-81,-54
12.829000000000633,-7962,-258,-3698,26,-159,-85,230,-91,-57
12.851000000000568,-8110,-282,-3940,-19,87,22,217,-78,-50
12.863000000000284,-7434,-6,-3830,63,29,98,227,-88,-47
12.885000000000218,-6994,182,-3936,-13,301,26,227,-78,-54
12.907000000000153,-7124,-10,-4332,-66,311,-32,222,-86,-62
12.918999999999869,-7348,156,-3876,-136,320,-3,224,-84,-53
12.940999999999804,-7264,210,-3664,-36,423,70,228,-87,-53
12.95300000000043,-6824,296,-3902,-5,280,60,225,-83,-66
12.975000000000364,-7266,-12,-4334,9,200,41,237,-83,-59
12.98700000000008,-6582,356,-4236,-44,73,-9,234,-83,-54
13.009000000000015,-7182,82,-4122,8,-105,39,227,-86,-54
13.030999999999949,-6704,208,-4382,-35,72,2,228,-87,-60
13.043000000000575,-7568,-86,-4540,-72,-1,8,228,-84,-68
13.06500000000051,-7142,330,-3476,-67,7,25,228,-84,-65
13.077000000000226,-7834,16,-3900,-122,599,-42,238,-82,-70
13.09900000000016,-7542,-174,-4412,-207,746,20,227,-73,-52
13.110999999999876,-7660,-110,-4186,-208,706,102,230,-83,-71
13.13299999999981,-7206,96,-4066,-157,785,189,227,-81,-69
13.155000000000655,-7346,-28,-4062,-185,1062,185,232,-75,-78
13.167000000000371,-7134,322,-4050,-268,1523,200,239,-78,-76
13.189000000000306,-6816,202,-5084,-305,1951,236,221,-82,-84
13.201000000000022,-6342,372,-4374,-339,2696,165,219,-82,-103
13.222999999999956,-6168,164,-6096,-392,3104,196,226,-77,-108
13.235000000000582,-5248,630,-5712,-415,2769,241,228,-59,-118
13.257000000000517,-4812,720,-5954,-353,2430,112,217,-81,-136
13.269000000000233,-4820,896,-5890,-305,2035,113,227,-70,-150
13.291000000000167,-5610,552,-6776,-205,1958,105,226,-74,-151
13.313000000000102,-5224,962,-5976,-396,2977,236,208,-68,-157
13.324999999999818,-4434,892,-7570,-467,3490,257,211,-62,-190
13.346999999999753,-3524,1028,-7296,-511,3834,197,201,-68,-191
13.359000000000378,-2892,1026,-7494,-612,4078,180,188,-68,-198
13.381000000000313,-2000,1366,-7840,-536,3085,215,179,-63,-219
13.393000000000029,-1734,1560,-7286,-388,2681,138,163,-59,-230
13.414999999999964,-1434,1636,-6542,-329,2911,81,157,-60,-246
13.436999999999898,-1688,1240,-8628,-268,3750,10,161,-59,-247
13.449000000000524,-1110,1168,-8388,-280,3317,192,152,-50,-253
13.471000000000458,-606,1464,-7578,-352,2886,208,124,-49,-271
13.483000000000175,-434,1852,-14368,-688,4178,166,117,-51,-283
13.50500000000011,1008,1548,-8024,-323,2537,112,107,-51,-280
13.516999999999825,1590,1030,-7812,-390,2793,82,96,-53,-286
13.53899999999976,1346,1912,-5814,-360,2688,73,78,-36,-297
13.551000000000386,1454,1772,-7774,-314,1905,155,72,-40,-298
13.57300000000032,2296,1892,-6838,-213,1566,200,62,-45,-306
13.595000000000255,2940,1696,-8104,-139,1715,127,56,-39,-295
13.606999999999971,2470,1944,-7078,-219,1257,118,37,-36,-314
13.628999999999905,3302,1964,-6436,-154,1533,86,55,-30,-310
13.641000000000531,3274,1716,-7254,-113,1514,92,41,-48,-301
13.663000000000466,3538,1882,-6114,-68,1802,81,23,-41,-309
13.675000000000182,4044,1562,-7270,-43,1653,76,24,-50,-306
13.697000000000116,3652,1874,-5988,-109,863,62,20,-26,-309
13.719000000000051,4238,1788,-6734,5,1038,57,9,-40,-301
13.730999999999767,4382,1906,-5652,-7,956,11,0,-35,-308
13.753000000000611,4394,1672,-6358,41,1497,1,-3,-39,-316
13.765000000000327,4740,1680,-6276,-3,1900,-8,-10,-39,-307
13.787000000000262,4720,1838,-6114,-165,1804,6,-16,-35,-308
13.798999999999978,5210,1856,-6834,-154,1763,74,-25,-36,-309
13.820999999999913,5454,1590,-6368,-118,630,121,-30,-34,-307
13.833285000000615,5246,1990,-4072,-6,167,86,-31,-40,-301
13.855000000000473,5338,1804,-5088,187,695,0,-32,-44,-304
13.877000000000407,5554,1848,-4734,217,1000,-63,-43,-30,-320
13.889000000000124,5350,1616,-5808,222,1550,-93,-44,-41,-302
13.911000000000058,5166,1318,-7416,74,1079,33,-38,-43,-301
13.922999999999774,5600,1828,-4886,-111,721,133,-54,-29,-309
13.945000000000618,6226,1554,-5492,8,576,104,-55,-40,-306
13.957000000000335,5814,1558,-5168,34,-180,85,-53,-45,-294
13.97900000000027,5906,1562,-4912,129,101,79,-56,-36,-304
14.001000000000204,5530,1698,-4606,77,130,64,-61,-41,-304
14.01299999999992,5396,1572,-5122,145,693,92,-60,-32,-303
14.034999999999854,5512,1686,-4734,160,781,164,-77,-43,-301
14.04700000000048,5712,1540,-5112,180,928,188,-77,-45,-308
14.069000000000415,6166,1360,-5956,175,743,217,-70,-40,-306
14.081000000000131,5866,1578,-4828,95,355,273,-70,-35,-298
14.103000000000065,6236,1602,-4502,130,184,254,-81,-49,-297
14.125,6212,1518,-4648,225,239,247,-81,-54,-297
14.137000000000626,6530,1438,-4974,262,277,185,-84,-55,-301
14.15900000000056,6072,1556,-4378,259,212,199,-70,-45,-289
14.171000000000276,6264,1482,-4778,303,137,212,-81,-44,-290
14.193000000000211,6180,1344,-4926,337,-103,203,-92,-53,-286
14.204999999999927,6528,1022,-5366,340,-213,216,-83,-59,-288
14.226999999999862,6360,1004,-4826,262,-456,196,-92,-55,-303
14.239000000000487,6392,958,-4936,332,-325,177,-78,-67,-300
14.261000000000422,6282,638,-5116,371,-276,113,-81,-64,-304
14.283000000000357,6266,576,-5256,358,-4,50,-72,-58,-298
14.295000000000073,6146,268,-5704,304,-122,96,-79,-48,-306
14.317000000000007,6054,226,-5422,219,-303,109,-75,-65,-296
14.329000000000633,6318,376,-5148,250,-287,90,-70,-65,-306
14.351000000000568,6584,296,-5368,294,-281,58,-67,-65,-289
14.363000000000284,6144,340,-4818,328,-176,4,-67,-68,-298
14.385000000000218,6194,408,-5180,333,-215,-40,-72,-65,-301
14.407000000000153,5906,614,-4944,339,-421,40,-73,-67,-300
14.418999999999869,6076,680,-4532,366,-464,93,-71,-69,-302
14.440999999999804,6890,734,-3844,537,-566,95,-70,-73,-301
14.45300000000043,6762,506,-4016,719,-581,-61,-70,-75,-296
14.475000000000364,6732,126,-5812,714,-689,-163,-67,-81,-303
14.48700000000008,6100,10,-6044,563,-868,-120,-64,-87,-311
14.509000000000015,6088,-16,-5700,449,-921,-33,-59,-92,-295
14.530999999999949,6042,-312,-6202,403,-694,-81,-58,-83,-308
14.543000000000575,5956,-670,-7024,328,-502,-136,-60,-98,-313
14.56500000000051,5932,-880,-7838,146,-585,-212,-54,-92,-300
14.577000000000226,5100,-954,-7586,-69,-829,-110,-48,-91,-306
14.59900000000016,5558,-966,-7562,-199,-443,-43,-49,-94,-304
14.610999999999876,5730,-930,-7666,-346,-565,-50,-39,-94,-309
14.63299999999981,5450,-912,-7808,-453,-535,-19,-42,-87,-311
14.645000000000437,5226,-728,-7492,-611,-662,52,-32,-92,-307
14.667000000000371,5256,-454,-6624,-693,-789,135,-26,-81,-310
14.689000000000306,5492,-178,-6526,-685,-574,128,-36,-88,-313
14.701000000000022,5032,-64,-6664,-638,-483,134,-31,-88,-303
14.722999999999956,4744,110,-6278,-723,-718,235,-26,-70,-310
14.735000000000582,5124,200,-6214,-661,-533,268,-16,-78,-315
14.761997999999949,4916,172,-6296,-700,-487,280,-12,-65,-317
14.774000000000342,4740,172,-6360,-687,-475,273,-20,-62,-304
14.786000000000058,5094,250,-6180,-746,-363,277,-19,-58,-310
14.807999999999993,4720,290,-6200,-768,-348,279,-3,-62,-314
14.829999999999927,4692,322,-6320,-773,-412,346,-10,-59,-311
14.842000000000553,4854,512,-5994,-863,-683,412,-7,-53,-313
14.864000000000487,4938,406,-5990,-821,-487,440,0,-48,-310
14.876000000000204,4950,548,-6006,-865,-625,382,4,-50,-303
14.898000000000138,4622,828,-6108,-866,-546,410,-2,-43,-320
14.909999999999854,4302,914,-6396,-856,-465,469,4,-40,-308
14.931999999999789,4772,1090,-6694,-893,-531,544,-1,-31,-304
14.954000000000633,4514,1424,-6244,-902,-576,582,4,-27,-313
14.96600000000035,4562,1392,-6986,-895,-568,580,13,-29,-311
14.988000000000284,3938,1586,-6928,-949,-654,617,18,-29,-314
15.0,4100,1842,-6546,-968,-631,686,7,-15,-306
15.021999999999935,3986,1886,-6640,-995,-651,676,26,-20,-306
15.03400000000056,3788,1892,-6910,-1045,-636,687,24,-7,-301
15.056000000000495,4076,2038,-6554,-1058,-572,727,21,-12,-303
15.07800000000043,4012,2162,-5960,-1049,-486,771,19,-7,-308
15.090000000000146,4114,2188,-6210,-980,-388,721,26,10,-298
15.11200000000008,4056,2314,-5914,-932,-383,644,31,10,-303
15.123999999999796,3926,2356,-6318,-944,-548,636,30,21,-300
15.14600000000064,3318,2392,-6338,-935,-528,664,26,17,-301
15.158000000000357,3538,2464,-6370,-952,-614,688,29,22,-294
15.180000000000291,3838,2892,-5606,-882,-506,617,31,35,-289
15.192000000000007,3748,2736,-6260,-786,-334,516,46,27,-291
15.213999999999942,3294,2546,-6892,-826,-453,576,32,36,-292
15.235999999999876,3368,2934,-6408,-824,-330,562,33,48,-282
15.248000000000502,3214,2994,-6440,-787,-311,530,46,43,-279
15.270000000000437,3028,2896,-6654,-784,-387,540,42,44,-283
15.282000000000153,3482,2936,-6558,-769,-408,517,43,58,-274
15.304000000000087,3156,2958,-6872,-733,-300,424,47,54,-278
15.315999999999804,2920,3310,-6658,-754,-467,443,43,63,-282
15.338000000000648,2918,3352,-6750,-719,-248,435,44,54,-278
15.360000000000582,2804,3174,-6706,-739,-93,390,48,65,-274
15.372000000000298,2744,3256,-6486,-774,-215,397,36,68,-277
15.394000000000233,2672,3422,-6264,-748,-226,395,42,67,-261
15.405999999999949,3044,3544,-5814,-717,-229,382,35,74,-266
15.427999999999884,2858,3540,-5710,-662,-252,352,47,67,-266
15.44000000000051,3002,3270,-6086,-591,-168,315,47,79,-261
15.462000000000444,3300,3440,-5588,-579,-199,234,37,87,-256
15.484000000000378,3376,3620,-5772,-487,-197,130,36,86,-260
15.496000000000095,3440,4070,-6434,-508,-290,16,44,94,-261
15.518000000000029,2894,4618,-6130,-458,-47,-21,48,93,-258
15.530000000000655,3068,4852,-6468,-409,23,-84,46,88,-253
15.55200000000059,3326,5284,-5804,-360,14,-162,36,93,-255
15.564000000000306,3038,5202,-7168,-298,-123,-170,47,77,-247
15.58600000000024,3130,5334,-7062,-236,-259,-132,47,94,-256
15.597999999999956,3148,5516,-6616,-162,-156,-199,52,87,-242
15.61999999999989,2992,5526,-6930,-70,14,-285,55,78,-246
15.641999999999825,2806,5506,-6986,-15,61,-317,55,83,-253
15.654000000000451,2818,5390,-7252,38,155,-315,47,87,-256
15.676000000000386,2418,5364,-6724,25,-37,-288,59,87,-256
15.688000000000102,2718,5346,-6600,104,-95,-297,52,87,-245
15.710000000000036,2610,5258,-6194,219,72,-370,60,108,-251
15.721999999999753,2496,4894,-6956,285,216,-424,56,89,-249
15.744000000000597,1886,4766,-6778,240,140,-386,55,86,-260
15.766000000000531,2438,4894,-6290,278,86,-256,50,83,-255
15.778000000000247,2644,4998,-5582,387,187,-351,47,82,-254
15.800000000000182,2596,4764,-6058,503,396,-469,47,82,-261
15.811999999999898,2092,4482,-6794,507,392,-509,56,82,-249
15.833999999999833,2544,4448,-6630,517,221,-409,47,77,-254
15.846000000000458,2672,4636,-5680,571,215,-500,62,70,-258
15.868000000000393,2668,4412,-6154,666,378,-590,53,65,-270
15.88000000000011,2350,4164,-6380,684,475,-604,55,70,-274
15.902000000000044,2364,3728,-7234,620,366,-513,61,67,-261
15.923999999999978,2992,4028,-6032,619,239,-450,58,60,-258
15.936000000000604,3174,3806,-6114,724,466,-578,50,70,-267
15.958000000000538,2918,3560,-6232,762,611,-691,44,56,-276
15.970000000000255,3194,3130,-7320,730,545,-653,50,60,-274
15.99200000000019,2628,3406,-6226,639,249,-628,49,56,-271
16.014000000000124,3254,3494,-6080,715,418,-650,53,43,-272
16.02599999999984,3256,3188,-6644,765,608,-741,46,37,-277
16.047999999999774,3058,2940,-6716,738,717,-813,46,45,-282
16.0600000000004,2806,2962,-6632,648,495,-717,46,40,-289
16.082000000000335,3398,2922,-6400,679,502,-676,39,36,-288
16.09400000000005,3388,2942,-5896,706,586,-765,44,34,-290
16.115999999999985,3376,2650,-6500,775,678,-792,35,24,-288
16.12800000000061,2882,2536,-6366,717,422,-745,37,29,-292
16.150000000000546,3332,2464,-6088,749,554,-730,41,25,-286
16.17200000000048,3474,2328,-6282,792,691,-795,44,13,-292
16.184000000000196,3462,1918,-6948,790,686,-769,39,13,-297
16.20600000000013,3370,1940,-6824,699,455,-705,37,16,-297
16.217999999999847,3986,1924,-6612,764,655,-746,30,1,-304
16.23999999999978,4216,1810,-6662,740,676,-787,24,-5,-298
16.252000000000407,3948,1580,-6846,726,547,-820,25,1,-297
16.274000000000342,4084,1434,-7240,677,536,-850,15,-3,-300
16.286000000000058,4036,1600,-6710,604,488,-845,25,-8,-307
16.307999999999993,3874,1650,-6342,589,640,-893,23,-11,-302
16.329999999999927,3828,1864,-6442,594,664,-913,15,-8,-309
16.342000000000553,3642,1962,-6622,596,538,-887,21,-15,-303
16.364000000000487,3554,2284,-6494,585,285,-808,16,-25,-301
16.376000000000204,3780,2492,-6652,637,339,-775,13,-21,-300
16.39800000000014,3592,2622,-6946,615,403,-737,9,-20,-301
16.420000000000073,4132,2386,-7434,599,587,-713,8,-34,-307
16.43199999999979,4038,2572,-6586,504,423,-675,-2,-27,-310
16.454000000000633,4272,2628,-6138,534,501,-690,3,-39,-304
16.46600000000035,4470,2574,-6174,601,460,-744,12,-35,-306
16.488000000000284,4100,2388,-7028,635,458,-752,-1,-36,-309
16.5,4032,2614,-6236,583,166,-650,6,-46,-307
16.521999999999935,4454,2500,-6360,640,412,-704,-4,-53,-310
16.53400000000056,4410,2228,-6696,649,515,-766,-4,-43,-308
16.556000000000495,4416,2198,-6422,583,335,-804,-8,-51,-309
16.57800000000043,4212,2020,-7004,607,356,-824,-4,-55,-310
16.590000000000146,4206,2218,-7012,542,261,-777,-6,-49,-304
16.61200000000008,4370,2182,-6268,563,414,-791,-9,-60,-315
16.623999999999796,4472,2202,-6318,571,447,-855,-13,-69,-304
16.64600000000064,4012,2108,-6684,633,672,-938,-20,-69,-314
16.658000000000357,3720,1982,-7108,570,413,-844,-15,-77,-304
16.68000000000029,4114,2136,-6336,545,155,-761,-20,-56,-302
16.692000000000007,4312,2206,-6216,567,266,-808,-23,-74,-309
16.713999999999942,4208,2300,-6284,633,509,-886,-21,-78,-308
16.735999999999876,4200,2066,-7234,698,734,-938,-25,-87,-311
16.748000000000502,3774,2228,-6688,570,391,-822,-27,-74,-319
16.76499800000056,4018,2424,-6458,631,358,-771,-29,-78,-306
16.787000000000262,3858,2374,-6220,716,468,-813,-43,-83,-303
16.798999999999978,3658,2006,-7472,698,373,-758,-38,-83,-308
16.820999999999913,4132,2124,-6892,658,187,-653,-32,-77,-309
16.83300000000054,3922,2138,-6506,629,338,-731,-52,-92,-302
16.855000000000473,4198,2082,-6906,633,603,-779,-43,-93,-310
16.877000000000407,3960,1840,-6690,631,581,-709,-49,-97,-295
16.889000000000124,4026,1570,-6916,633,775,-735,-58,-103,-306
16.911000000000058,4000,1524,-7046,525,397,-616,-43,-88,-303
16.922999999999774,4074,1638,-5844,567,220,-527,-52,-112,-288
16.94500000000062,4408,1504,-5980,633,281,-608,-59,-112,-297
16.957000000000335,4160,1340,-6330,688,419,-664,-62,-98,-301
16.97900000000027,4204,1306,-6454,679,474,-721,-60,-113,-296
17.001000000000204,3840,1220,-6432,582,331,-640,-64,-117,-292
17.01299999999992,3808,1154,-6516,532,311,-522,-69,-120,-283
17.034999999999854,4098,1216,-6206,547,440,-467,-70,-111,-291
17.04700000000048,4332,1188,-6206,567,645,-414,-70,-121,-301
17.069000000000415,4456,1054,-6298,564,741,-392,-65,-118,-284
17.08100000000013,4686,1116,-6622,486,497,-325,-78,-127,-288
17.103000000000065,4928,1166,-6310,487,522,-303,-81,-125,-297
17.125,5020,1186,-6252,475,491,-327,-76,-125,-288
17.137000000000626,5262,1244,-6556,488,558,-317,-90,-130,-283
17.15900000000056,5484,1510,-6300,510,800,-417,-78,-120,-288
17.171000000000276,5104,1410,-6638,470,627,-402,-93,-130,-288
17.19300000000021,4600,1380,-6738,354,614,-377,-95,-120,-288
17.204999999999927,4662,1588,-6370,239,450,-305,-93,-125,-268
17.22699999999986,4686,1832,-5352,290,545,-245,-110,-132,-276
17.239000000000487,4904,1654,-5476,385,532,-234,-107,-127,-271
17.261000000000422,5092,1620,-5424,421,470,-239,-99,-126,-274
17.283000000000357,5204,1576,-5626,444,528,-274,-108,-136,-272
17.295000000000073,4792,1486,-5722,428,457,-228,-108,-134,-265
17.317000000000007,4786,1682,-5278,425,415,-164,-107,-127,-261
17.329000000000633,4954,1740,-5124,498,430,-104,-123,-129,-270
17.351000000000568,5180,1444,-5434,538,510,-85,-117,-132,-264
17.363000000000284,5124,1388,-5550,479,295,7,-127,-135,-266
17.38500000000022,5646,1378,-4978,467,103,83,-121,-151,-267
17.407000000000153,5874,974,-6454,480,2,89,-117,-140,-256
17.41899999999987,5792,1130,-5352,491,-1,-1,-119,-158,-259
17.440999999999804,6052,1018,-5644,579,470,-112,-130,-162,-255
17.45300000000043,5788,-542,-5020,618,756,-9,-116,-146,-253
17.475000000000364,6242,1124,-5960,574,488,-99,-130,-151,-248
17.48700000000008,5632,514,-5544,475,330,-125,-129,-148,-259
17.509000000000015,6166,578,-5444,505,382,-114,-131,-150,-252
17.53099999999995,5986,662,-5416,510,370,-141,-123,-154,-239
17.543000000000575,5998,608,-5472,542,454,-136,-133,-151,-255
17.56500000000051,6062,310,-5942,542,496,-133,-134,-160,-242
17.577000000000226,5780,342,-5696,457,375,-89,-131,-170,-237
17.59900000000016,6082,336,-5484,407,317,-33,-129,-153,-235
17.610999999999876,5854,288,-5460,406,312,-17,-144,-155,-230
17.63299999999981,6034,298,-5396,382,325,-8,-133,-164,-229
17.645000000000437,6074,202,-5348,351,355,22,-139,-155,-233
17.66700000000037,6378,258,-5004,331,333,26,-139,-158,-240
17.689000000000306,6454,146,-5460,333,298,7,-138,-167,-231
17.701000000000022,6340,212,-5280,321,299,35,-133,-167,-227
17.722999999999956,6340,234,-5056,290,279,33,-136,-163,-223
17.735000000000582,6728,56,-5454,285,288,70,-147,-159,-219
17.757000000000517,7102,-92,-5744,209,174,60,-146,-170,-221
17.769000000000233,6806,-170,-5344,203,261,18,-141,-168,-213
17.791000000000167,7230,-524,-6064,172,285,-25,-142,-167,-207
17.813000000000102,7324,-526,-5822,32,125,-28,-158,-163,-221
17.824999999999818,7382,-584,-5530,-22,198,-71,-146,-175,-211
17.846999999999753,7456,-728,-5764,-102,43,-104,-159,-167,-212
17.85900000000038,7214,-594,-5462,-165,33,-128,-142,-172,-212
17.881000000000313,7162,-552,-5290,-215,83,-163,-155,-164,-212
17.89300000000003,6900,-474,-5004,-250,190,-220,-151,-165,-211
17.914999999999964,6612,-440,-5222,-300,245,-235,-161,-163,-206
17.92700000000059,6636,-302,-5048,-368,163,-211,-159,-167,-215
17.949000000000524,6254,-168,-4862,-398,148,-164,-147,-164,-212
17.97100000000046,6182,14,-4478,-432,71,-104,-151,-168,-225
17.983000000000175,6108,-16,-4648,-443,74,-38,-161,-168,-221
18.00500000000011,6242,-46,-4528,-496,50,36,-163,-145,-213
18.016999999999825,6698,-256,-5146,-536,35,106,-163,-163,-216
18.03899999999976,5924,-128,-4014,-648,-353,201,-156,-155,-218
18.051000000000386,6248,-118,-4288,-527,-108,307,-151,-163,-218
18.07300000000032,5902,-380,-4520,-629,-40,203,-159,-162,-215
18.095000000000255,6408,-240,-5700,-717,-79,236,-148,-155,-228
18.10699999999997,6206,-184,-5680,-821,-279,257,-158,-150,-228
18.128999999999905,6140,-8,-5154,-829,-322,210,-165,-148,-233
18.14100000000053,5808,174,-5176,-870,-44,186,-147,-159,-234
18.163000000000466,5816,248,-5498,-900,133,219,-152,-151,-234
18.175000000000182,5806,364,-5344,-1048,186,212,-156,-143,-233
18.197000000000116,5526,526,-4898,-1125,227,269,-151,-143,-235
18.21900000000005,5634,708,-4528,-1130,350,367,-151,-140,-242
18.230999999999767,5846,700,-4536,-1154,331,479,-162,-139,-231
18.25300000000061,6318,932,-4412,-1171,169,495,-144,-137,-249
18.265000000000327,6422,920,-3702,-1120,205,438,-151,-137,-245
18.287000000000262,6074,882,-4118,-1065,263,358,-161,-127,-237
18.298999999999978,6254,932,-4362,-1098,431,326,-156,-130,-240
18.320999999999913,6426,1052,-3788,-1179,327,362,-146,-127,-245
18.33300000000054,6722,1028,-3728,-1149,324,393,-162,-124,-251
18.355000000000473,7066,1162,-3514,-1113,174,398,-169,-121,-248
18.377000000000407,7330,1246,-3998,-1091,146,325,-162,-121,-246
18.389000000000124,7054,1206,-4512,-1111,66,328,-150,-118,-246
18.411000000000058,6684,1292,-3888,-1191,-187,407,-158,-115,-247
18.422999999999774,6652,1450,-3434,-1083,104,364,-153,-125,-252
18.44500000000062,7036,1394,-4302,-1026,256,314,-157,-111,-246
18.457000000000335,6956,1282,-4766,-1057,256,310,-165,-102,-254
18.47900000000027,6606,1130,-4158,-1184,-163,487,-144,-105,-256
18.501000000000204,6422,1356,-3492,-1173,-166,445,-161,-107,-245
18.51299999999992,7328,1568,-3998,-1062,86,505,-163,-97,-266
18.534999999999854,7162,1218,-4410,-1120,301,371,-145,-86,-262
18.54700000000048,7096,1122,-4704,-1303,42,451,-156,-79,-247
18.569000000000415,6958,1348,-3484,-1373,-77,557,-164,-88,-262
18.58100000000013,7390,1446,-2696,-1289,165,537,-151,-89,-256
18.603000000000065,7610,1676,-2622,-1180,651,396,-163,-89,-256
18.625,7454,1464,-3370,-1019,1327,110,-162,-73,-248
18.637000000000626,7786,1774,-3638,-1080,1406,-34,-158,-72,-247
18.65900000000056,7626,1778,-2938,-1160,984,380,-162,-65,-239
18.671000000000276,6652,1324,-2302,-1210,283,643,-170,-62,-249
18.69300000000021,8700,1842,-2226,-1290,92,398,-163,-59,-245
18.704999999999927,8380,1798,-2200,-1246,137,151,-168,-64,-242
18.72699999999986,6964,1828,-2306,-1245,239,96,-168,-62,-254
18.739000000000487,7004,1898,-1944,-1266,-79,275,-175,-64,-245
18.765997999999854,7152,2082,-1970,-1159,-215,391,-175,-54,-245
18.778000000000247,7354,1998,-1754,-1101,79,387,-175,-51,-245
18.800000000000182,8646,2008,-1882,-1049,114,304,-174,-55,-236
18.811999999999898,7828,1938,-2370,-955,267,131,-169,-43,-251
18.833999999999833,7540,1754,-3020,-985,211,171,-174,-37,-248
18.84600000000046,7404,1708,-2804,-1126,47,289,-170,-44,-245
18.868000000000393,7888,1816,-2164,-1185,5,365,-174,-37,-239
18.88000000000011,8398,1754,-2296,-1090,101,328,-176,-30,-248
18.902000000000044,8430,1770,-1794,-1085,60,172,-173,-21,-242
18.923999999999978,8382,1882,-1314,-944,55,118,-174,-32,-236
18.936000000000604,8300,1680,-1898,-850,162,90,-171,-25,-234
18.95800000000054,7988,1598,-2466,-838,55,96,-173,-24,-240
18.970000000000255,7908,1518,-2532,-891,-76,134,-169,-30,-231
18.99200000000019,7816,1588,-2570,-1008,-167,168,-178,-24,-242
19.003999999999905,7886,1896,-1620,-1036,-92,130,-170,-24,-242
19.02599999999984,7830,2026,-1036,-959,78,61,-186,-17,-236
19.047999999999774,8070,2034,-1436,-797,214,18,-184,-12,-243
19.0600000000004,7546,1736,-2242,-850,-37,90,-182,-11,-237
19.082000000000335,7456,1928,-1858,-945,-230,197,-180,-3,-237
19.09400000000005,7562,1946,-1792,-954,-521,298,-184,-10,-239
19.115999999999985,8028,2148,-1396,-978,-631,277,-173,-8,-240
19.12800000000061,7844,2286,-712,-910,-475,218,-176,-10,-248
19.150000000000546,8546,2400,-430,-746,-110,172,-180,-6,-225
19.17200000000048,7734,1944,-2118,-723,-284,185,-178,-8,-240
19.184000000000196,7180,1732,-2040,-810,-1037,450,-170,3,-240
19.20600000000013,6814,1934,-954,-879,-1825,820,-176,7,-241
19.217999999999847,8634,3178,2850,-557,-1142,897,-163,-1,-245
19.23999999999978,8200,1806,-2956,-303,-1215,719,-157,10,-243
19.252000000000407,7734,2186,-1360,-478,-1106,661,-158,-8,-249
19.274000000000342,7452,1744,-2852,-347,-135,479,-158,1,-259
19.296000000000276,7848,1752,-3318,-626,-101,293,-153,1,-256
19.307999999999993,7994,1754,-2426,-598,-325,375,-152,0,-258
19.329999999999927,7914,2158,-1030,-520,-748,365,-169,7,-253
19.342000000000553,8294,1906,-2662,-338,-692,222,-146,-1,-259
19.364000000000487,7120,1490,-3200,-437,-155,42,-156,-1,-261
19.376000000000204,6478,1572,-3792,-571,-190,234,-151,-1,-259
19.39800000000014,7278,1912,-2702,-630,-118,320,-155,-2,-267
19.409999999999854,7398,1944,-2754,-633,-259,278,-148,11,-256
19.43199999999979,6720,1608,-3362,-593,-297,298,-150,10,-262
19.454000000000633,6970,1936,-2272,-561,-412,464,-157,15,-270
19.46600000000035,6704,1736,-2662,-472,-246,476,-151,6,-264
19.488000000000284,7708,1674,-2678,-503,-234,397,-153,8,-264
19.5,7614,1358,-3244,-515,-102,382,-146,11,-254
19.521999999999935,7372,1288,-3200,-576,6,332,-138,10,-270
19.53400000000056,7020,1448,-2610,-595,249,183,-148,1,-264
19.556000000000495,7126,1330,-2666,-580,69,229,-155,15,-258
19.568285000000287,7706,1508,-1738,-563,312,208,-150,12,-262
19.590000000000146,7062,1192,-2832,-487,294,179,-155,10,-262
19.61200000000008,7202,1206,-2760,-554,248,181,-165,8,-259
19.623999999999796,7354,1440,-1668,-500,624,77,-163,16,-254
19.64600000000064,7298,1384,-2090,-540,529,78,-161,21,-259
19.658000000000357,7554,1200,-1696,-479,460,51,-162,17,-255
19.68000000000029,7436,936,-2536,-448,154,8,-156,26,-247
19.702000000000226,7128,1124,-2292,-473,97,-40,-153,29,-249
19.713999999999942,6876,1464,-1220,-605,584,-80,-174,15,-251
19.735999999999876,7810,1554,-780,-488,789,-67,-175,26,-249
19.748000000000502,8246,1480,-388,-287,671,-182,-175,34,-240
19.770000000000437,7530,1326,-1624,-405,177,-180,-165,29,-242
19.782000000000153,8332,1886,-710,-349,173,-123,-180,29,-247
19.804000000000087,8162,1968,-730,-303,83,-209,-180,41,-247
19.815999999999804,7810,1862,-722,-294,295,-334,-165,31,-235
19.838000000000648,7292,1790,-202,-159,197,-273,-165,34,-235
19.860000000000582,7200,2102,-224,-41,-96,-39,-169,40,-231
19.8720000000003,7914,1710,-1664,44,15,103,-176,43,-231
19.894000000000233,8026,1494,-1738,-33,17,145,-167,32,-241
19.90599999999995,8236,1468,-1886,-137,11,160,-176,32,-239
19.927999999999884,9052,1392,-1440,-90,20,58,-173,36,-247
19.94000000000051,8912,1778,-886,-74,116,-119,-180,29,-247
19.962000000000444,8098,1838,-912,-46,231,-215,-168,36,-235
19.97400000000016,7216,1628,-1250,-4,163,-52,-181,37,-248
19.996000000000095,7450,1500,-2190,-23,92,90,-179,30,-236
20.01800000000003,8446,1712,-1300,-107,-89,124,-176,50,-236
20.030000000000655,8968,2022,-332,-65,-90,1,-171,27,-243
20.05200000000059,9088,2240,-230,72,-99,-126,-175,31,-228
20.064000000000306,8354,1926,-1188,160,35,-184,-173,39,-235
20.08600000000024,7504,2034,-1090,166,65,-150,-182,41,-240
20.097999999999956,7936,2092,-960,166,-53,-122,-167,32,-234
20.11999999999989,8060,2258,-264,249,-59,-181,-184,37,-239
20.141999999999825,7838,1992,-752,390,108,-160,-175,34,-240
20.15400000000045,7386,1622,-1494,415,33,-67,-180,31,-240
20.176000000000386,7552,1452,-2158,392,-110,-26,-165,39,-242
20.188000000000102,8004,1818,-982,339,-124,-50,-167,30,-239
20.210000000000036,7974,1268,-2254,443,2,-157,-184,37,-239
20.221999999999753,6572,688,-3576,300,78,-139,-174,25,-241
20.244000000000597,6802,680,-3472,127,-20,-38,-167,45,-248
20.26600000000053,7020,1084,-2494,-4,-77,-40,-179,22,-246
20.278000000000247,6890,1150,-2788,-115,115,-35,-175,21,-247
20.300000000000182,6934,1658,-1478,-212,204,-4,-173,29,-247
20.311999999999898,7660,2136,-838,-160,122,42,-182,34,-235
20.333999999999833,8048,2398,-16,-72,141,-14,-174,30,-234
20.34600000000046,8100,2174,-752,19,121,-64,-181,30,-246
20.368000000000393,7780,2058,-842,85,214,-122,-185,24,-240
20.38000000000011,7526,1820,-890,108,154,-166,-176,37,-241
20.402000000000044,6936,1666,-1618,124,201,-153,-174,22,-246
20.423999999999978,6970,1792,-1204,127,145,2,-181,27,-243
20.436000000000604,7536,1854,-1278,128,-48,109,-176,32,-234
20.45800000000054,8328,1998,-1084,124,-173,106,-176,20,-248
20.470000000000255,8366,2140,-412,154,-122,72,-182,24,-254
20.49200000000019,8038,1640,-1032,261,42,-17,-171,20,-239
20.503999999999905,7698,978,-2494,240,-26,1,-168,18,-240
20.52599999999984,7252,546,-2928,136,11,6,-175,18,-240
20.547999999999774,7372,170,-3168,-25,-11,35,-175,18,-240
20.5600000000004,7746,36,-3192,-130,24,105,-179,22,-239
20.582000000000335,8212,136,-2688,-272,-64,121,-187,34,-245
20.59400000000005,8844,30,-2714,-362,-35,71,-178,24,-235
20.615999999999985,8812,336,-2322,-457,15,-55,-174,15,-227
20.62800000000061,8136,460,-1962,-548,13,-90,-170,29,-230
20.650000000000546,7782,586,-1546,-512,-31,-25,-169,30,-227
20.67200000000048,7816,746,-1566,-494,104,32,-169,30,-239
20.684000000000196,7836,800,-1528,-576,-55,119,-171,32,-234
20.70600000000013,7944,874,-1560,-530,-146,183,-162,27,-227
20.717999999999847,8286,946,-1496,-553,-216,222,-171,30,-231
20.73999999999978,8400,978,-1804,-573,-102,200,-162,40,-222
20.752000000000407,7984,1176,-1728,-580,-54,185,-171,37,-239
20.768998000000465,7714,1162,-1942,-653,-155,268,-165,26,-233
20.791000000000167,8220,1550,-1454,-704,-133,268,-174,45,-227
20.813000000000102,8310,1672,-1482,-723,-105,213,-168,34,-242
20.824999999999818,8060,1882,-758,-682,-94,186,-181,50,-222
20.846999999999753,8104,1910,-862,-612,-121,174,-179,48,-224
20.85900000000038,8038,1810,-1618,-587,-122,167,-157,40,-224
20.881000000000313,8020,1814,-1712,-620,-150,201,-171,58,-229
20.89300000000003,8142,1868,-1496,-657,-244,188,-161,64,-223
20.914999999999964,8312,2096,-934,-629,-157,111,-170,56,-228
20.92700000000059,7870,2074,-1106,-610,-117,62,-156,59,-223
20.949000000000524,7608,2046,-1138,-568,-129,85,-165,59,-213
20.97100000000046,7510,2008,-1188,-566,-200,154,-163,56,-228
20.983000000000175,8116,1948,-1184,-572,-177,197,-163,67,-225
21.00500000000011,8370,2172,-676,-514,-206,79,-163,64,-209
21.016999999999825,7702,1964,-1134,-496,-165,39,-159,58,-227
21.03899999999976,7754,1738,-1422,-480,-87,125,-158,67,-211
21.051000000000386,8062,1794,-1238,-472,-112,112,-163,67,-221
21.07300000000032,7664,1622,-1566,-507,-130,98,-161,69,-213
21.095000000000255,7848,1736,-1242,-515,-165,123,-157,75,-212
21.10699999999997,7976,1840,-1308,-498,-94,110,-147,81,-215
21.128999999999905,7808,1978,-900,-473,-63,34,-159,73,-212
21.14100000000053,7862,2084,-1168,-451,-204,61,-163,82,-209
21.163000000000466,8060,2216,-634,-409,-145,52,-161,82,-202
21.175000000000182,8278,2366,-852,-366,-65,48,-156,54,-206
21.197000000000116,7770,2104,-998,-325,18,30,-157,78,-210
21.21900000000005,8144,2184,-856,-311,-107,76,-155,75,-210
21.230999999999767,8098,2068,-1034,-261,-109,67,-158,77,-204
21.25300000000061,8162,1998,-1176,-228,-83,31,-158,82,-209
21.265000000000327,7924,2026,-1180,-252,-24,-11,-161,79,-211
21.287000000000262,7836,1898,-1362,-248,-25,37,-155,75,-207
21.298999999999978,8090,1904,-1080,-234,-178,42,-152,78,-207
21.320999999999913,8184,1792,-1400,-202,-65,-46,-147,83,-203
21.33300000000054,7866,1764,-1140,-209,-17,-76,-152,78,-193
21.355000000000473,7206,1620,-1374,-174,69,-48,-156,77,-197
21.377000000000407,7052,1610,-1272,-221,-5,55,-153,87,-194
21.389000000000124,7232,1688,-1128,-190,-78,116,-150,88,-200
21.411000000000058,7460,1360,-1524,-150,-5,183,-152,86,-196
21.422999999999774,8004,1378,-1310,-216,-191,210,-156,94,-199
21.44500000000062,8480,1280,-1328,-204,-111,115,-151,79,-197
21.457000000000335,8390,1328,-1138,-224,40,-22,-155,91,-198
21.47900000000027,7606,1148,-1566,-224,202,-104,-148,84,-194
21.501000000000204,7362,1120,-1674,-267,167,-47,-141,79,-202
21.51299999999992,7500,1216,-1486,-297,-5,31,-151,79,-190
21.534999999999854,7754,1348,-1296,-280,-71,50,-158,89,-199
21.54700000000048,7698,1416,-782,-250,3,70,-162,88,-198
21.569000000000415,7714,1440,-1224,-239,43,121,-159,91,-196
21.58100000000013,7674,1526,-968,-246,109,166,-150,96,-200
21.603000000000065,7676,1580,-720,-219,122,188,-161,77,-192
21.61499999999978,7560,1552,-818,-190,108,213,-148,92,-192
21.637000000000626,7584,1446,-780,-168,72,251,-152,88,-193
21.65900000000056,7874,1218,-1378,-139,89,246,-155,75,-184
21.671000000000276,7864,1138,-1688,-218,46,216,-156,82,-194
21.69300000000021,7484,934,-1736,-276,92,243,-161,87,-197
21.704999999999927,8032,928,-1604,-300,126,278,-148,77,-187
21.72699999999986,8442,856,-1540,-342,278,196,-151,84,-185
21.748999999999796,8538,810,-1912,-402,138,129,-161,92,-175
21.761000000000422,8342,940,-1096,-445,133,18,-151,82,-187
21.783000000000357,8364,940,-1796,-477,65,-18,-158,87,-178
21.795000000000073,8182,1066,-1426,-514,54,-63,-163,84,-180
21.817000000000007,7826,1216,-978,-557,84,-88,-158,92,-178
21.829000000000633,7688,1424,-754,-530,37,-86,-165,94,-178
21.851000000000568,7590,1436,-872,-513,-40,-49,-156,99,-182
21.863000000000284,7780,1558,-764,-516,-88,-6,-159,93,-164
21.88500000000022,7742,1442,-802,-500,-28,12,-155,93,-172
21.907000000000153,7654,1442,-978,-478,-64,50,-148,89,-170
21.91899999999987,7944,1366,-974,-520,-93,88,-162,93,-160
21.940999999999804,8196,1378,-784,-489,-88,35,-161,89,-170
21.95300000000043,7666,1410,-1072,-501,-59,-4,-165,99,-161
21.975000000000364,7696,1354,-1194,-499,-76,59,-152,93,-164
21.98700000000008,8040,1520,-902,-541,10,-8,-161,87,-156
22.009000000000015,8008,1636,-884,-540,168,-88,-156,92,-168
22.02100000000064,7398,1640,-538,-542,16,-104,-150,91,-164
22.043000000000575,7568,1880,-342,-534,-24,-31,-151,99,-161
22.06500000000051,7756,1896,-632,-482,88,11,-153,92,-158
22.077000000000226,7506,1788,-684,-488,90,8,-152,111,-155
22.09900000000016,9948,2712,294,-287,-135,3,-157,106,-153
22.110999999999876,9548,2266,-2782,-69,-187,229,-140,101,-153
22.13299999999981,6876,1346,716,-550,269,42,-147,96,-150
22.145000000000437,8012,1654,-678,-518,342,132,-159,88,-157
22.16700000000037,8628,1832,-1276,-382,141,152,-152,96,-150
22.189000000000306,7848,1798,-762,-422,-41,21,-162,103,-145
22.201000000000022,7708,2042,-232,-428,-31,24,-156,102,-144
22.222999999999956,7820,2030,-942,-441,-78,46,-150,103,-145
22.235000000000582,8008,2108,-174,-435,-73,108,-157,103,-148
22.257000000000517,8446,2192,-266,-390,-90,88,-152,98,-148
22.269000000000233,8442,2094,-684,-354,-142,2,-152,101,-141
22.291000000000167,8146,2220,-558,-401,-185,-42,-142,108,-138
22.313000000000102,7876,2240,-120,-346,18,-44,-156,102,-144
22.324999999999818,7872,2302,-248,-306,116,-52,-152,106,-145
22.346999999999753,8020,2160,-644,-290,50,-38,-148,112,-147
22.35900000000038,8020,2204,-568,-297,-29,-11,-151,99,-135
22.381000000000313,7930,2188,-548,-301,-36,-43,-152,111,-133
22.39300000000003,8070,2334,-446,-281,-80,-27,-146,105,-147
22.414999999999964,7920,2348,-308,-242,-46,-73,-151,107,-137
22.42700000000059,7658,2380,-542,-208,10,-88,-150,101,-138
22.449000000000524,7668,2492,-746,-175,-30,-67,-146,105,-132
22.47100000000046,7372,2556,-554,-164,-1,-63,-140,106,-131
22.483000000000175,7306,2528,-588,-155,13,-42,-150,108,-136
22.50500000000011,7412,2798,-16,-137,47,-55,-138,113,-133
22.516999999999825,7420,2694,-376,-51,80,-57,-145,103,-131
22.53899999999976,7524,2840,-56,-44,21,-3,-152,118,-138
22.551000000000386,7692,2858,-40,27,107,-16,-153,105,-127
22.57300000000032,7584,2870,-8,95,60,-19,-142,124,-138
22.595000000000255,7316,2708,-344,144,108,-16,-135,108,-124
22.60699999999997,7384,2670,-328,152,152,24,-146,102,-135
22.628999999999905,7780,2624,-256,187,94,70,-146,115,-135
22.64100000000053,8044,2696,152,243,62,29,-150,108,-136
22.663000000000466,8082,2530,-206,330,97,-11,-142,103,-126
22.675000000000182,7798,2568,78,362,171,-36,-148,107,-139
22.697000000000116,7644,2488,-558,372,175,-40,-146,112,-132
22.70928499999991,7498,2426,-442,372,49,-32,-148,105,-144
22.730999999999767,7530,2396,-300,394,79,18,-152,106,-136
22.75300000000061,7680,2312,-278,423,144,16,-155,106,-143
22.76999799999976,7724,2256,-144,418,54,35,-153,102,-142
22.782000000000153,7828,2220,-192,437,64,43,-152,103,-143
22.804000000000087,7736,2138,-284,476,98,78,-152,101,-136
22.815999999999804,7984,2148,-154,473,123,85,-152,111,-148
22.838000000000648,8134,2030,-224,489,229,60,-161,102,-135
22.860000000000582,8154,2002,390,505,133,32,-151,99,-139
22.8720000000003,7898,1916,-534,537,127,16,-158,102,-147
22.894000000000233,7916,2016,-218,511,62,35,-158,97,-144
22.90599999999995,8050,2162,292,520,61,20,-162,103,-148
22.927999999999884,7816,2058,-22,574,163,-23,-161,105,-147
22.94000000000051,7682,1854,-384,584,256,-81,-163,97,-151
22.962000000000444,7438,1660,-338,613,264,-78,-162,101,-155
22.97400000000016,7590,1574,-708,570,117,1,-150,96,-150
22.996000000000095,8010,1660,-6,603,150,47,-161,94,-154
23.01800000000003,8238,1686,-410,604,125,-12,-162,96,-155
23.030000000000655,8108,1798,128,648,178,-79,-169,96,-162
23.05200000000059,7984,1710,-186,670,205,-100,-165,99,-158
23.064000000000306,7754,1790,62,696,214,-96,-174,86,-153
23.08600000000024,7228,1558,-462,696,213,-56,-165,97,-161
23.097999999999956,7434,1628,-270,635,70,89,-162,83,-157
23.11999999999989,7770,1554,-244,639,74,192,-162,96,-167
23.141999999999825,8198,1352,-130,662,109,236,-167,91,-167
23.15400000000045,8688,1320,-96,651,85,173,-169,83,-162
23.176000000000386,8790,1184,-228,667,98,105,-163,92,-166
23.188000000000102,8770,1094,-280,651,159,75,-170,84,-166
23.210000000000036,9330,1128,-244,632,84,24,-168,82,-168
23.221999999999753,9336,1182,-184,659,153,-130,-173,77,-168
23.244000000000597,8584,1420,96,658,162,-217,-174,75,-167
23.26600000000053,8180,1448,-300,675,137,-208,-171,75,-169
23.278000000000247,7908,1606,-216,652,104,-162,-178,74,-175
23.300000000000182,7900,1720,-42,666,31,-159,-171,75,-169
23.311999999999898,7588,1632,-26,671,24,-160,-175,77,-170
23.333999999999833,7562,1588,-148,661,84,-71,-161,77,-173
23.34600000000046,7770,1674,-262,654,128,-5,-173,74,-180
23.368000000000393,8050,1596,-140,639,45,-2,-176,68,-186
23.38000000000011,8206,1554,-256,636,-49,-26,-185,72,-187
23.402000000000044,8192,1678,132,661,40,-88,-176,63,-184
23.423999999999978,7892,1616,-2,667,15,-100,-176,68,-193
23.436000000000604,7800,1702,144,668,83,-62,-169,75,-193
23.45800000000054,7806,1608,-34,717,129,6,-178,67,-187
23.470000000000255,8150,1792,-24,711,50,-12,-173,67,-180
23.49200000000019,8114,1670,106,756,62,11,-175,64,-204
23.503999999999905,8068,1604,112,764,42,13,-180,64,-190
23.52599999999984,7976,1536,-78,800,144,-11,-179,58,-186
23.547999999999774,7950,1470,-64,791,148,4,-181,60,-191
23.5600000000004,7974,1438,-192,785,145,7,-179,60,-205
23.582000000000335,8164,1510,14,804,125,-14,-182,56,-199
23.59400000000005,7900,1462,-90,823,51,-34,-176,60,-198
23.615999999999985,7972,1410,-248,809,79,5,-179,53,-198
23.62800000000061,8190,1280,-264,810,95,46,-182,34,-206
23.650000000000546,8372,1242,-368,811,39,45,-184,37,-200
23.662000000000262,8282,1264,-160,804,73,25,-182,46,-221
23.684000000000196,8230,1230,-210,801,38,36,-186,30,-203
23.70600000000013,8516,1250,-370,804,81,9,-191,32,-203
23.717999999999847,8650,1264,-16,810,93,-53,-182,41,-209
23.73999999999978,8440,1302,-156,837,200,-140,-185,39,-211
23.752000000000407,8368,1268,-44,840,188,-135,-190,24,-209
23.774000000000342,8298,1302,74,857,224,-160,-194,31,-213
23.786000000000058,7836,1452,-70,956,754,-87,-194,24,-204
23.807999999999993,7880,1208,-412,935,626,-97,-190,18,-206
23.829999999999927,7394,1000,118,943,785,-51,-192,18,-206
23.842000000000553,7066,798,-644,864,494,52,-198,7,-210
23.864000000000487,7326,1062,-200,777,84,129,-191,15,-217
23.876000000000204,7642,1104,-6,793,-95,178,-198,-5,-205
23.89800000000014,7864,948,326,779,-187,101,-203,10,-210
23.909999999999854,7844,710,-180,744,-189,112,-197,6,-209
23.93199999999979,7954,754,410,785,327,139,-209,1,-211
23.954000000000633,8140,754,204,813,359,105,-205,-2,-212
23.96600000000035,7924,544,-490,805,142,84,-201,-2,-207
23.988000000000284,7882,722,50,759,70,59,-215,-10,-205
24.0,8168,792,-180,745,-58,62,-211,-13,-204
24.021999999999935,8094,646,-162,765,-231,39,-220,-5,-203
24.03400000000056,8078,490,-204,761,-174,-12,-226,-16,-199
24.056000000000495,7608,534,-366,778,-99,-35,-208,-10,-207
24.06800000000021,7370,512,-574,730,-189,-14,-215,-15,-200
24.090000000000146,7860,462,-404,726,-179,26,-209,-26,-204
24.11200000000008,8560,504,-286,702,-65,48,-215,-25,-207
24.123999999999796,8556,414,28,742,176,-9,-208,-35,-200
24.14600000000064,8026,286,-536,747,181,-109,-207,-34,-209
24.158000000000357,7968,354,-1038,659,111,-72,-227,-25,-215
24.18000000000029,7916,416,-254,659,188,-116,-213,-32,-215
24.192000000000007,7734,212,-150,691,327,-36,-213,-25,-200
24.213999999999942,7752,126,-406,580,307,-48,-224,-39,-199
24.235999999999876,7704,40,-412,622,326,80,-226,-34,-199
24.248000000000502,8544,298,-750,547,244,6,-221,-31,-197
24.270000000000437,7914,222,-358,523,138,-9,-219,-31,-187
24.282000000000153,7700,284,-58,572,213,93,-221,-36,-199
24.304000000000087,8446,502,132,642,532,138,-225,-45,-193
24.315999999999804,8052,468,260,660,633,124,-228,-39,-192
24.338000000000648,7914,120,-710,607,386,69,-219,-51,-194
24.360000000000582,8040,318,-12,647,522,143,-225,-43,-186
24.3720000000003,8368,552,216,539,255,91,-226,-41,-190
24.394000000000233,8328,566,-68,557,-44,3,-217,-48,-176
24.40599999999995,8060,378,-688,526,-46,16,-226,-49,-178
24.427999999999884,8092,544,86,469,-118,50,-228,-49,-187
24.44000000000051,7980,592,-52,493,-98,99,-216,-46,-194
24.462000000000444,8068,570,-404,481,-139,89,-227,-45,-186
24.47400000000016,8180,416,-552,481,135,76,-230,-53,-186
24.496000000000095,8198,370,-490,440,98,86,-225,-58,-179
24.51800000000003,8252,362,-418,380,-72,101,-221,-56,-190
24.530000000000655,8432,316,-322,378,-116,96,-221,-46,-190
24.55200000000059,8694,204,-570,338,50,59,-221,-62,-185
24.564000000000306,8364,428,-44,315,-77,1,-221,-62,-197
24.58600000000024,8206,252,-542,361,94,-27,-219,-62,-182
24.597999999999956,8034,272,124,354,284,-17,-224,-59,-187
24.61999999999989,8024,290,-490,314,-45,38,-234,-50,-181
24.641999999999825,8620,380,-796,280,-145,-5,-226,-62,-185
24.65400000000045,8480,380,-444,282,-95,-8,-221,-59,-194
24.676000000000386,8532,410,-368,213,-295,-32,-215,-53,-186
24.688000000000102,8550,444,-156,282,-117,-90,-225,-63,-200
24.710000000000036,8154,580,-398,263,-107,-164,-226,-72,-197
24.721999999999753,7990,604,-298,274,25,-123,-226,-74,-192
24.744000000000597,7902,830,-222,246,61,-79,-216,-59,-194
24.756000000000313,7726,692,-312,277,104,-67,-222,-60,-193
24.783000000000357,7712,642,-406,222,-43,6,-216,-67,-192
24.795000000000073,7944,558,-596,200,-149,36,-226,-62,-192
24.817000000000007,7754,468,240,242,-204,93,-209,-56,-194
24.829000000000633,8566,376,-444,425,-36,368,-221,-69,-204
24.851000000000568,8204,198,38,291,-53,163,-219,-67,-190
24.863000000000284,8748,332,-346,295,43,158,-227,-75,-205
24.88500000000022,8522,332,-356,311,-45,60,-222,-75,-200
24.907000000000153,8116,82,-940,261,-210,-59,-226,-72,-187
24.91899999999987,7636,96,-602,174,-216,-46,-224,-74,-204
24.940999999999804,8032,186,-994,149,-222,-49,-217,-65,-193
24.95300000000043,8110,136,-1186,126,-101,4,-219,-72,-194
24.975000000000364,8078,218,-574,88,-34,24,-219,-67,-192
24.98700000000008,8174,204,-754,123,105,36,-220,-78,-200
25.009000000000015,8000,224,-896,145,45,25,-214,-82,-199
25.02100000000064,8018,332,-766,108,-138,23,-214,-87,-209
25.043000000000575,7814,348,-626,130,-82,42,-219,-82,-199
25.06500000000051,7948,444,-400,112,-62,106,-214,-84,-197
25.077000000000226,8040,216,-860,117,-6,108,-214,-74,-204
25.09900000000016,8174,248,-468,65,-16,57,-211,-67,-199
25.110999999999876,8260,198,-246,103,60,-12,-216,-89,-199
25.13299999999981,8160,270,-436,114,204,-49,-214,-74,-199
25.145000000000437,8090,250,-314,144,188,-49,-215,-83,-207
25.16700000000037,7434,182,-252,161,86,-11,-216,-84,-204
25.189000000000306,7316,74,-780,149,40,68,-215,-70,-186
25.201000000000022,7494,118,-1010,127,-39,190,-216,-89,-199
25.222999999999956,7930,128,-690,93,-138,216,-208,-78,-200
25.235000000000582,8032,96,-530,78,-156,221,-216,-72,-206
25.257000000000517,8120,-8,-540,77,-143,207,-208,-81,-196
25.269000000000233,8290,58,-626,94,-113,188,-215,-83,-198
25.291000000000167,8430,34,-578,82,-184,139,-210,-91,-196
25.30328499999996,8320,52,-768,81,-188,101,-221,-87,-202
25.324999999999818,8112,4,-844,76,-113,77,-217,-91,-205
25.346999999999753,8454,128,-710,55,-98,89,-215,-96,-196
25.35900000000038,8550,132,-1110,60,-4,43,-215,-91,-207
25.381000000000313,8038,184,-882,62,93,-18,-205,-88,-205
25.39300000000003,7992,78,-1366,24,36,-2,-217,-86,-205
25.414999999999964,8138,218,-1192,-1,81,-25,-219,-99,-206
25.42700000000059,8046,342,-1090,-11,192,-106,-209,-92,-204
25.449000000000524,7790,266,-1056,-20,161,-64,-209,-87,-206
25.47100000000046,7894,260,-924,-89,-57,9,-211,-87,-199
25.483000000000175,8214,372,-814,-69,-14,14,-216,-92,-192
25.50500000000011,8000,110,-1008,-88,14,26,-216,-92,-202
25.516999999999825,8146,-64,-1186,-141,-18,101,-211,-92,-192
25.53899999999976,8380,-166,-1048,-168,-14,133,-213,-96,-198
25.551000000000386,8522,-102,-782,-173,-76,68,-210,-96,-217
25.57300000000032,8502,-260,-890,-146,-40,-23,-213,-98,-210
25.595000000000255,8214,-384,-1398,-136,44,-83,-207,-94,-206
25.60699999999997,8084,-388,-1246,-180,39,-59,-214,-92,-204
25.628999999999905,8056,-326,-932,-193,58,-81,-213,-96,-207
25.64100000000053,7918,-468,-1278,-248,139,-94,-219,-84,-209
25.663000000000466,7900,-460,-1116,-302,162,-60,-214,-79,-187
25.675000000000182,8216,-374,-920,-349,115,-69,-217,-88,-203
25.697000000000116,8218,-244,-366,-321,41,-121,-210,-86,-193
25.71900000000005,7872,-260,-728,-325,34,-205,-211,-72,-192
25.730999999999767,7650,-140,-746,-320,84,-124,-214,-82,-204
25.75300000000061,7586,-102,-762,-322,127,-108,-211,-84,-190
25.765000000000327,7440,-148,-912,-363,101,-77,-203,-73,-200
25.787000000000262,7350,-274,-854,-417,67,-6,-208,-81,-196
25.798999999999978,7816,-240,-832,-442,88,32,-220,-78,-191
25.820999999999913,8058,-214,-482,-468,95,12,-215,-75,-200
25.83300000000054,8188,-154,-366,-464,83,-27,-217,-78,-196
25.855000000000473,8232,-92,-460,-444,79,-67,-213,-81,-196
25.877000000000407,8024,2,-284,-452,123,-93,-207,-72,-194
25.889000000000124,8076,-88,-512,-489,144,-54,-215,-78,-198
25.911000000000058,8164,38,228,-481,172,-45,-216,-82,-199
25.922999999999774,8714,302,152,-445,197,-132,-217,-70,-196
25.94500000000062,8258,328,0,-389,211,-256,-221,-69,-190
25.957000000000335,8098,454,162,-399,143,-258,-207,-72,-192
25.97900000000027,7934,578,574,-362,49,-250,-214,-62,-197
26.001000000000204,8146,960,1110,-304,-34,-266,-210,-60,-191
26.01299999999992,8072,1028,620,-181,157,-306,-219,-64,-194
26.034999999999854,7636,964,268,-151,177,-291,-221,-56,-194
26.04700000000048,7300,882,52,-147,129,-204,-222,-63,-188
26.069000000000415,7360,780,-50,-196,-62,-28,-225,-63,-179
26.08100000000013,8114,1012,298,-209,-110,65,-221,-54,-185
26.103000000000065,8162,872,398,-184,15,9,-214,-56,-197
26.11499999999978,8162,612,484,-202,-91,28,-219,-56,-185
26.137000000000626,8460,766,894,-178,-88,2,-224,-67,-192
26.15900000000056,8414,836,608,-85,-24,-96,-216,-64,-187
26.171000000000276,8070,882,6,-50,-77,-122,-216,-67,-194
26.19300000000021,7294,284,-670,-84,-156,-94,-215,-68,-186
26.204999999999927,7554,698,-180,-140,-182,-14,-208,-58,-188
26.22699999999986,7798,800,210,-152,-122,24,-215,-45,-184
26.239000000000487,7474,894,654,-106,39,-19,-202,-59,-192
26.261000000000422,8152,966,788,-58,167,47,-220,-58,-196
26.283000000000357,7982,1082,334,17,253,-3,-208,-65,-188
26.295000000000073,7402,1146,844,15,88,-197,-211,-62,-194
26.317000000000007,7416,1268,158,29,133,-221,-214,-56,-192
26.329000000000633,7084,1200,-86,15,90,-113,-216,-59,-197
26.351000000000568,7108,1086,-274,-20,117,-4,-214,-62,-187
26.363000000000284,7416,1066,84,-45,190,57,-226,-49,-180
26.38500000000022,7936,1016,-242,-69,188,96,-215,-58,-188
26.407000000000153,8166,1108,296,-72,217,56,-213,-63,-188
26.41899999999987,7958,1114,206,-91,361,-53,-220,-55,-191
26.440999999999804,7672,1016,108,-57,410,-55,-214,-46,-192
26.45300000000043,7514,1146,196,-119,428,14,-214,-62,-178
26.475000000000364,7774,1086,408,-160,380,103,-207,-69,-168
26.48700000000008,7954,984,846,-164,502,133,-215,-53,-176
26.509000000000015,8056,742,430,-204,488,184,-217,-50,-174
26.52100000000064,8450,926,1692,-207,429,151,-211,-64,-187
26.543000000000575,9192,1236,2078,-156,309,50,-219,-59,-170
26.56500000000051,8946,1516,2698,-1,401,-216,-224,-49,-178
26.577000000000226,8226,1764,2272,203,394,-334,-222,-58,-179
26.59900000000016,7390,1144,410,242,408,-208,-225,-53,-155
26.610999999999876,7924,1118,654,11,-44,48,-220,-63,-169
26.63299999999981,9294,1154,1270,-27,-71,35,-221,-46,-173
26.645000000000437,9880,1432,2006,86,91,-135,-220,-50,-179
26.66700000000037,9586,1340,1586,294,163,-313,-224,-49,-170
26.689000000000306,8766,924,294,296,70,-380,-226,-64,-166
26.701000000000022,8320,702,-328,206,70,-322,-228,-51,-173
26.722999999999956,8656,918,152,69,-34,-232,-214,-59,-163
26.735000000000582,9360,1254,904,52,-144,-281,-221,-56,-185
26.757000000000517,8716,1442,1334,185,67,-426,-219,-56,-170
26.773998000000574,8226,1284,446,221,-31,-416,-216,-44,-178
26.786000000000058,7602,1356,766,251,-13,-383,-215,-48,-164
26.807999999999993,7674,1590,606,139,-130,-297,-216,-46,-168
26.829999999999927,7698,1676,1212,184,-2,-294,-213,-50,-174
26.842000000000553,8342,1558,1216,186,83,-261,-221,-49,-170
26.864000000000487,8348,1664,1302,142,-229,-280,-213,-48,-169
26.876000000000204,8490,1820,1474,280,-109,-269,-208,-45,-162
26.89800000000014,8696,1716,1312,360,-133,-432,-220,-50,-167
26.909999999999854,8342,1786,432,460,-75,-555,-221,-49,-175
26.93199999999979,7422,1700,338,517,-85,-604,-221,-44,-173
26.94428500000049,7122,1732,-348,399,-77,-514,-209,-46,-173
26.96600000000035,6914,1702,-606,248,-234,-324,-214,-39,-175
26.988000000000284,7960,1740,-484,184,-183,-281,-216,-44,-170
27.0,8172,2052,810,142,-108,-407,-221,-31,-180
27.021999999999935,7880,2250,816,201,123,-507,-213,-43,-179
27.03400000000056,7690,2044,-6,325,-138,-440,-214,-41,-175
27.056000000000495,7934,2204,176,283,-273,-523,-220,-35,-174
27.06800000000021,7580,2490,252,275,-414,-502,-217,-43,-169
27.090000000000146,7686,2748,738,414,-177,-544,-208,-30,-176
27.11200000000008,7930,2830,708,505,19,-681,-196,-40,-184
27.123999999999796,7156,2360,-788,538,82,-674,-214,-36,-173
27.14600000000064,7264,2596,-446,468,-29,-598,-209,-26,-175
27.158000000000357,7464,2672,-310,442,-1,-514,-208,-30,-181
27.18000000000029,7430,2504,-452,425,143,-386,-214,-18,-175
27.192000000000007,8500,3126,778,307,-74,-359,-209,-26,-178
27.213999999999942,9198,3660,1438,541,63,-537,-204,-21,-173
27.235999999999876,8498,3424,1154,761,113,-749,-208,-37,-176
27.248000000000502,7720,3056,-596,833,-16,-710,-214,-21,-182
27.270000000000437,7518,3346,-534,758,16,-575,-213,-30,-181
27.282000000000153,7876,3740,-460,810,-36,-564,-205,-22,-174
27.304000000000087,7758,3928,-146,983,367,-770,-211,-21,-182
27.315999999999804,7310,3494,-688,1037,295,-757,-214,-31,-182
27.338000000000648,7230,3488,-1300,1019,49,-585,-209,-24,-187
27.350000000000364,7118,3620,-1478,880,-223,-517,-213,-27,-181
27.3720000000003,7644,3876,-334,1041,-77,-424,-210,-27,-179
27.394000000000233,7138,3600,-1282,936,185,-566,-197,-21,-185
27.40599999999995,7112,3748,-1188,953,208,-453,-205,-25,-186
27.427999999999884,6910,3778,-1054,931,195,-393,-207,-8,-170
27.44000000000051,7006,3622,-1580,903,140,-403,-199,-26,-180
27.462000000000444,7908,3942,-2018,971,96,-292,-207,-21,-170
27.47400000000016,6786,3316,-1472,908,-65,-198,-213,-22,-176
27.496000000000095,7346,3482,-1636,766,-96,-143,-214,-18,-175
27.51800000000003,7510,3574,-1468,752,-122,-59,-205,-15,-179
27.530000000000655,7196,3260,-1086,708,-65,-104,-205,-20,-174
27.55200000000059,8262,3894,-1370,850,-281,120,-215,-17,-181
27.564000000000306,6516,3378,-790,506,-49,-165,-205,-17,-184
27.58600000000024,7870,3778,-1544,773,-76,-177,-203,-17,-174
27.597999999999956,7140,3742,-1448,756,156,12,-208,-12,-176
27.61999999999989,6750,3674,-976,710,-37,41,-203,-10,-179
27.641999999999825,6710,3516,-1550,743,-140,169,-211,-3,-178
27.65400000000045,7150,3644,-2108,767,-255,146,-210,-7,-196
27.676000000000386,7034,3446,-1606,842,43,158,-211,-1,-182
27.688000000000102,7146,3494,-2086,735,-73,115,-214,3,-178
27.710000000000036,6570,3504,-1692,683,-245,145,-214,11,-192
27.721999999999753,6630,3632,-1486,707,-234,225,-208,10,-198
27.744000000000597,7010,3582,-2070,695,-122,275,-209,13,-202
27.76600000000053,6946,3630,-1740,674,-269,300,-213,25,-210
27.778000000000247,7104,3484,-1362,790,-50,196,-216,29,-230
27.800000000000182,7096,3366,-1958,831,125,174,-215,45,-241
27.811999999999898,6752,3054,-2410,813,116,215,-213,50,-267
27.833999999999833,6860,2846,-2446,776,-54,266,-214,56,-276
27.84600000000046,7060,2828,-2554,714,25,296,-207,46,-288
27.868000000000393,7216,2732,-2830,636,-25,320,-222,30,-325
27.88000000000011,7276,2566,-2920,552,-168,323,-209,6,-355
27.902000000000044,7338,2778,-1030,394,-200,385,-204,6,-364
27.923999999999978,6862,2786,-1536,447,-369,335,-201,-25,-363
27.936000000000604,6816,2626,-2438,609,6,364,-205,-50,-396
27.95800000000054,6830,2288,-2726,637,54,382,-201,-83,-394
27.970000000000255,7324,2078,-3040,678,-95,426,-205,-101,-384
27.99200000000019,6900,1768,-2920,474,-61,518,-210,-118,-380
28.003999999999905,7332,1884,-2660,366,-74,543,-198,-162,-375
28.02599999999984,7328,1734,-2276,378,-131,566,-197,-173,-364
28.038000000000466,7750,1884,-1998,479,84,415,-207,-198,-352
28.0600000000004,7408,1592,-2954,492,-30,375,-207,-196,-340
28.082000000000335,7350,1582,-3022,414,-99,367,-205,-212,-308
28.09400000000005,7096,1634,-2666,399,-95,348,-204,-234,-297
28.115999999999985,7256,1528,-2586,409,57,308,-209,-218,-285
28.12800000000061,7354,1258,-3398,405,103,345,-203,-237,-279
28.150000000000546,7050,1218,-2890,317,55,364,-201,-235,-265
28.162000000000262,7332,984,-3244,262,61,391,-202,-244,-247
28.184000000000196,7616,918,-2994,174,-66,340,-204,-249,-247
28.20600000000013,7702,1114,-2458,172,7,254,-204,-254,-249
28.217999999999847,7388,1096,-2652,225,72,209,-213,-263,-248
28.23999999999978,7390,1154,-2490,229,39,150,-208,-283,-231
28.252000000000407,7498,1262,-2500,267,133,68,-204,-279,-254
28.274000000000342,7368,1284,-2690,285,208,40,-209,-284,-254
28.286000000000058,7182,1274,-2954,269,91,62,-213,-291,-258
28.307999999999993,7420,1314,-2508,202,-120,178,-232,-293,-253
28.329999999999927,8082,1430,-2160,170,-111,161,-228,-297,-256
28.342000000000553,7828,1504,-1770,254,73,116,-224,-307,-264
28.364000000000487,7696,1170,-2632,327,35,77,-242,-316,-277
28.376000000000204,7546,880,-3216,270,-33,107,-239,-329,-274
28.39800000000014,7576,742,-3178,172,-96,173,-248,-320,-280
28.409999999999854,7796,690,-2976,100,-113,185,-253,-335,-278
28.43199999999979,8092,670,-2720,55,-135,122,-265,-340,-292
28.444000000000415,7856,828,-2570,96,-107,12,-266,-359,-303
28.46600000000035,7466,762,-2958,144,62,-54,-273,-374,-320
28.488000000000284,7026,648,-3226,71,103,-19,-274,-375,-331
28.5,7378,722,-3414,-35,-52,43,-283,-392,-358
28.521999999999935,7474,942,-2934,-98,-113,37,-301,-408,-371
28.53400000000056,7662,1028,-2434,-72,-41,24,-312,-397,-399
28.556000000000495,7608,954,-2992,-73,80,-26,-314,-422,-413
28.56800000000021,7630,1086,-2648,-93,63,-33,-345,-446,-474
28.590000000000146,7548,1186,-2544,-102,47,-21,-357,-444,-488
28.61200000000008,7892,1316,-2608,-35,262,-68,-376,-459,-531
28.623999999999796,7786,1322,-2614,-18,224,-158,-379,-482,-553
28.64600000000064,7418,1268,-3332,-21,119,-150,-408,-499,-608
28.658000000000357,6970,1410,-2508,-3,243,-120,-421,-518,-647
28.68000000000029,6980,1510,-2074,208,158,23,-446,-548,-701
28.692000000000007,7598,1808,-1362,672,114,103,-463,-578,-742
28.713999999999942,7538,1288,-2012,363,6,123,-507,-659,-768
28.735999999999876,7644,1196,-2118,176,107,72,-519,-666,-761
28.748000000000502,8020,946,-2014,43,232,25,-511,-685,-762
28.77499799999987,8118,822,-2092,-23,318,-88,-509,-682,-718
28.787000000000262,7812,564,-2228,129,224,-182,-457,-665,-671
28.798999999999978,7462,582,-2926,210,125,-141,-454,-621,-646
28.820999999999913,7772,716,-2306,257,72,-114,-422,-598,-617
28.83300000000054,8022,462,-3178,268,-132,-103,-400,-575,-596
28.855000000000473,7972,624,-2890,159,-300,-190,-372,-518,-559
28.877000000000407,7526,882,-2368,169,-103,-260,-356,-491,-566
28.889000000000124,7240,728,-2768,168,-16,-276,-334,-473,-564
28.911000000000058,7144,738,-2998,105,-81,-226,-326,-448,-564
28.922999999999774,7194,668,-3344,40,-196,-156,-308,-401,-558
28.94500000000062,7314,572,-3152,-37,-225,-150,-307,-379,-576
28.957000000000335,7464,434,-2972,-132,-333,-160,-306,-348,-584
28.97900000000027,7464,242,-2914,-189,-323,-257,-305,-321,-590
28.990999999999985,7176,-68,-3306,-197,-13,-378,-291,-267,-632
29.01299999999992,6944,-664,-4174,-325,102,-442,-282,-218,-632
29.034999999999854,7126,-996,-4652,-612,-50,-409,-293,-162,-652
29.04700000000048,7808,-676,-4348,-868,-141,-448,-283,-101,-662
29.069000000000415,7944,-170,-3730,-1013,-81,-606,-270,46,-603
29.08100000000013,7684,354,-3812,-1071,-28,-767,-253,117,-539
29.103000000000065,7148,734,-3950,-1173,0,-831,-242,154,-447
29.125,6508,920,-4404,-1325,31,-813,-237,151,-337
29.137000000000626,6166,1386,-4348,-1556,43,-623,-214,89,-199
29.15900000000056,6404,1880,-3516,-1734,14,-448,-208,30,-179
29.171000000000276,6728,2236,-3034,-1830,-173,-286,-221,-3,-154
29.19300000000021,6994,2682,-2666,-1805,85,-327,-211,-16,-158
29.204999999999927,6826,2702,-2730,-1773,211,-294,-213,-53,-160
29.22699999999986,6252,2724,-1868,-1766,204,-173,-216,-54,-163
29.239000000000487,7242,3004,-2814,-1849,-78,-48,-213,-68,-172
29.261000000000422,7702,3218,-1704,-1753,81,108,-215,-60,-172
29.283000000000357,8646,3594,-108,-1531,249,-3,-205,-65,-181
29.295000000000073,8640,3298,-834,-1190,487,-252,-210,-65,-188
29.317000000000007,8020,2882,-1346,-1061,474,-337,-210,-63,-186
29.329000000000633,7644,2566,-2308,-1128,293,-244,-213,-60,-181
29.351000000000568,7578,2760,-1758,-1298,106,-148,-201,-50,-162
29.363000000000284,7658,3106,-550,-1324,-65,-68,-214,-46,-187
29.38500000000022,7696,3520,350,-1171,276,-194,-207,-46,-175
29.407000000000153,7532,3324,-212,-975,545,-289,-209,-31,-187
29.41899999999987,7334,3026,-1122,-955,565,-321,-219,-44,-182
29.440999999999804,6652,3046,-1134,-1036,389,-248,-211,-41,-178
29.45300000000043,7130,3228,-288,-1093,343,-149,-209,-34,-180
29.475000000000364,6848,3300,-462,-1115,101,-92,-211,-29,-178
29.48700000000008,6870,3576,528,-1042,214,-185,-208,-27,-174
29.509000000000015,6864,3422,184,-905,348,-262,-213,-25,-179
29.52100000000064,6718,3214,-428,-939,352,-242,-214,-11,-166
29.543000000000575,6604,2926,-912,-1072,293,-219,-211,-16,-180
29.56500000000051,6076,3058,-120,-1216,-4,-82,-221,-6,-168
29.577000000000226,6548,3560,418,-1268,-297,-82,-215,-5,-167
29.59900000000016,6292,3828,904,-1213,-248,-173,-208,-2,-176
29.610999999999876,6730,3398,482,-1216,-306,-203,-205,0,-167
29.63299999999981,6440,4050,1280,-1285,-844,-198,-208,-2,-157
29.645000000000437,6320,4182,1888,-1025,-136,-150,-207,11,-161
29.66700000000037,5486,3252,202,-960,423,-310,-211,6,-163
29.689000000000306,6374,3858,1112,-1106,171,141,-201,-2,-160
29.701000000000022,7036,4108,1926,-1051,394,186,-222,7,-160
29.722999999999956,7438,4056,2030,-1041,277,206,-214,8,-149
29.735000000000582,7058,3948,1780,-964,245,239,-217,7,-153
29.757000000000517,6888,3478,750,-1022,-147,474,-211,16,-158
29.769000000000233,6988,3128,444,-1156,-399,697,-214,11,-149
29.791000000000167,7868,3294,1662,-1218,-474,807,-221,8,-154
29.802999999999884,9038,3718,2516,-1040,-38,605,-209,6,-149
29.824999999999818,9198,3632,2808,-758,555,208,-222,10,-150
29.846999999999753,7962,3074,1486,-720,643,-9,-216,11,-147
29.85900000000038,6730,2722,408,-764,707,48,-211,3,-144
29.881000000000313,6598,2872,1722,-944,505,207,-222,10,-138
29.89300000000003,6776,2860,1764,-888,516,288,-217,10,-138
29.914999999999964,7106,2436,1814,-966,215,261,-221,13,-139
29.92700000000059,7324,2342,2062,-962,424,220,-224,8,-137
29.949000000000524,7240,2156,1892,-1029,424,96,-230,10,-117
29.97100000000046,7426,2606,3728,-871,651,-8,-211,6,-125
29.983000000000175,7628,2480,2398,-1040,281,-74,-217,17,-124
30.00500000000011,6928,2244,2722,-1005,582,-60,-221,11,-115
30.016999999999825,6786,1996,2748,-1196,346,46,-227,15,-114
30.03899999999976,7444,2024,3932,-1232,267,144,-230,17,-112
30.051000000000386,8108,2018,3788,-1209,175,19,-227,7,-114
30.07300000000032,7760,2318,4276,-1185,77,-101,-226,26,-111
30.095000000000255,7272,2472,4588,-1017,161,-189,-221,16,-108
30.10699999999997,6588,2332,4084,-1012,282,-260,-221,18,-108
30.128999999999905,5740,2448,4658,-963,356,-117,-219,21,-99
30.14100000000053,6440,2430,4300,-965,204,129,-225,32,-109
30.163000000000466,6654,2686,5320,-884,55,269,-217,7,-95
30.175000000000182,6896,2638,4778,-751,92,199,-219,16,-94
30.197000000000116,6570,2532,4738,-678,311,78,-213,10,-86
30.208999999999833,6236,2336,4764,-596,384,103,-228,11,-103
30.230999999999767,6390,2364,5182,-500,314,221,-221,18,-82
30.25300000000061,6772,2404,5584,-405,288,276,-213,17,-88
30.265000000000327,7234,2874,6100,-266,421,200,-232,17,-90
30.287000000000262,7084,3172,6932,16,520,74,-221,1,-92
30.298999999999978,6860,3388,6892,229,316,-98,-227,12,-81
30.320999999999913,7230,3480,7128,577,280,-178,-221,16,-89
30.33300000000054,5614,3824,6970,583,384,-162,-226,11,-75
30.355000000000473,4318,3874,6620,1002,106,-39,-226,13,-84
30.377000000000407,4076,3716,5620,1129,-62,107,-228,1,-92
30.389000000000124,3708,3212,5178,1160,-165,494,-220,17,-76
30.411000000000058,4558,3136,5622,1177,-306,819,-224,3,-82
30.422999999999774,5554,2638,5056,1302,-315,1043,-210,7,-78
30.44500000000062,6572,2712,6034,1334,-684,1049,-224,13,-99
30.457000000000335,7220,2404,5338,1620,-326,908,-226,3,-96
30.47900000000027,6606,2124,5114,1715,-302,758,-220,0,-98
30.490999999999985,6546,1838,3842,1783,-287,732,-225,-10,-88
30.51299999999992,6782,2160,4838,1851,-451,777,-221,-6,-94
30.534999999999854,7758,2300,4480,1888,-406,693,-220,-17,-107
30.54700000000048,7268,2328,4308,1986,-256,543,-226,-26,-106
30.569000000000415,7662,1878,3016,1896,-338,501,-224,-26,-103
30.58100000000013,7620,2004,3222,1807,-334,454,-234,-22,-107
30.603000000000065,8042,1878,3328,1855,-102,378,-228,-31,-118
30.61499999999978,7904,1580,2970,1815,-92,321,-237,-35,-109
30.637000000000626,7948,1824,3372,1776,-67,320,-227,-48,-121
30.65900000000056,8288,1500,3474,1872,-20,285,-242,-48,-124
30.671000000000276,8204,1150,2732,1868,38,194,-244,-37,-117
30.69300000000021,7922,838,2138,1831,183,63,-231,-56,-118
30.704999999999927,7542,866,1574,1789,-89,124,-238,-46,-120
30.72699999999986,7508,954,1298,1633,-271,88,-237,-55,-114
30.739000000000487,7252,1114,2374,1601,-357,125,-245,-51,-123
30.761000000000422,7560,684,672,1597,-316,202,-224,-54,-123
30.77799800000048,8112,1046,1062,1417,-313,207,-233,-56,-127
30.800000000000182,9098,1284,1400,1406,194,41,-234,-63,-121
30.811999999999898,8914,1414,2012,1424,390,-169,-231,-64,-127
30.833999999999833,8236,1562,1122,1499,538,-403,-232,-65,-121
30.84600000000046,6774,1600,30,1387,666,-390,-234,-65,-126
30.868000000000393,6178,1500,-332,1191,702,-126,-225,-53,-117
30.88000000000011,6444,1764,158,843,285,268,-245,-72,-115
30.902000000000044,8122,2508,2174,826,-428,492,-244,-73,-98
30.923999999999978,9844,2932,4228,1183,-474,284,-244,-68,-117
30.936000000000604,9492,2764,2320,1411,208,-229,-238,-79,-108
30.95800000000054,8582,2670,2212,1358,326,-424,-248,-74,-111
30.970000000000255,7388,2370,1322,1375,607,-387,-239,-83,-114
30.99200000000019,7090,2408,1036,1318,569,-197,-245,-72,-108
31.003999999999905,7492,2294,1072,1277,365,-26,-245,-72,-101
31.02599999999984,8130,2228,1066,1254,291,-16,-234,-73,-100
31.038285000000542,8240,2324,1842,1205,202,-84,-237,-78,-95
31.0600000000004,7802,2060,1578,1367,458,-168,-243,-67,-101
31.082000000000335,7574,1728,740,1430,527,-182,-247,-75,-98
31.09400000000005,6766,1270,-300,1389,423,-185,-245,-77,-106
31.115999999999985,5934,1086,-1280,1274,87,-25,-244,-65,-90
31.12800000000061,5570,1208,-1768,957,-240,238,-233,-67,-92
31.150000000000546,6440,1548,-306,740,-233,582,-247,-73,-93
31.162000000000262,7050,1984,270,677,6,686,-238,-72,-96
31.184000000000196,9434,2652,1604,755,-81,508,-240,-82,-94
31.20600000000013,9610,2744,1530,925,549,145,-233,-84,-84
31.217999999999847,8968,2884,1954,910,764,2,-243,-82,-82
31.23999999999978,8508,2552,1080,1035,836,-77,-247,-86,-76
31.252000000000407,8946,2340,470,1016,754,-121,-244,-83,-74
31.274000000000342,9308,2242,42,886,492,-275,-233,-72,-72
31.286000000000058,8382,2198,86,797,335,-393,-236,-74,-80
31.307999999999993,7930,2636,660,724,65,-459,-253,-67,-63
31.329999999999927,6848,2418,996,809,40,-450,-239,-58,-64
31.342000000000553,7514,2262,194,844,32,-305,-245,-44,-60
31.364000000000487,7342,2362,-388,656,-15,-197,-243,-56,-60
31.376000000000204,7572,2548,-94,693,68,-217,-248,-44,-46
31.39800000000014,8094,2710,4,682,16,-118,-255,-39,-41
31.409999999999854,8112,2808,118,602,58,-259,-256,-37,-38
31.43199999999979,8010,2822,200,566,141,-304,-259,-35,-28
31.444000000000415,6966,2740,24,536,118,-234,-267,-29,-27
31.46600000000035,7682,3136,452,520,92,-200,-270,-6,-15
31.488000000000284,7748,3254,798,548,229,-256,-272,-18,-5
31.5,7086,3128,72,540,222,-237,-284,-3,13
31.521999999999935,7006,3012,-314,420,-25,-151,-289,8,29
31.53400000000056,7308,3274,-42,309,-247,-51,-294,21,63
31.556000000000495,7264,3654,930,322,-160,-101,-301,31,72
31.57800000000043,6948,3624,640,451,-5,-146,-307,25,90
31.590000000000146,6766,3556,232,472,20,-160,-326,32,107
31.61200000000008,6378,3368,-72,472,10,-79,-356,50,164
31.623999999999796,6844,3392,-728,465,226,-42,-369,62,199
31.64600000000064,6706,3344,-622,369,138,8,-388,56,228
31.658000000000357,6796,3368,-100,306,103,79,-420,56,266
31.68000000000029,7402,3298,-390,302,17,123,-457,65,327
31.692000000000007,7610,3416,66,242,-126,75,-480,36,338
31.713999999999942,7622,3394,210,308,31,-13,-523,25,372
31.726285000000644,7488,3192,-164,276,-5,-78,-546,34,390
31.748000000000502,7358,3178,2,242,-6,-70,-613,-6,448
31.770000000000437,7270,2960,-1080,146,-120,-46,-643,-16,484
31.782000000000153,7276,3142,-422,45,-59,-71,-676,-26,505
31.804000000000087,7720,2968,-774,-7,-134,-50,-704,-27,537
31.815999999999804,7470,2800,-744,-139,-182,-155,-728,-48,552
31.838000000000648,7610,3174,-604,-153,-219,-182,-737,-46,577
31.850000000000364,7202,3348,-214,-160,-315,-193,-733,-45,588
31.8720000000003,6940,3544,-66,-114,-287,-207,-730,-36,598
31.894000000000233,7176,3632,-162,-91,-153,-178,-695,-5,614
31.90599999999995,6972,3662,-132,-154,-173,-167,-675,2,621
31.927999999999884,7170,3828,280,-158,-100,-131,-662,18,639
31.94000000000051,7274,3772,-58,-163,-139,-127,-653,45,645
31.962000000000444,7120,3794,-128,-189,-161,-73,-622,55,669
31.97400000000016,6980,3640,-574,-207,-249,-14,-617,70,693
31.996000000000095,7432,3940,228,-228,-321,-53,-595,83,702
32.01800000000003,6998,3880,252,-141,-186,-100,-592,99,694
32.030000000000655,6680,3568,-648,-115,11,-102,-586,134,724
32.05200000000059,6976,3504,-866,-244,-209,-4,-561,154,745
32.064000000000306,7208,3894,-38,-266,-205,7,-547,187,743
32.08600000000024,7158,3866,180,-202,-55,-46,-540,202,731
32.097999999999956,6932,3684,-592,-195,-12,-60,-514,241,723
32.11999999999989,7012,3648,-708,-278,-188,2,-513,263,712
32.13200000000052,7428,3632,-584,-314,-173,29,-507,272,701
32.15400000000045,7592,3630,-362,-406,-326,-10,-480,287,684
32.176000000000386,7616,3762,180,-367,-248,-93,-455,291,623
32.1880000000001,7536,3630,-416,-340,-279,-189,-434,310,596
32.210000000000036,6748,3412,-600,-348,-348,-193,-402,316,576
32.22199999999975,6716,3408,-132,-384,-297,-131,-374,330,548
32.2440000000006,7782,3038,-1394,-441,-301,-95,-330,325,462
32.25600000000031,7238,3006,-538,-606,-565,-117,-310,324,420
32.27800000000025,6784,3198,184,-627,-517,-180,-296,312,366
32.30000000000018,7328,3224,-144,-570,-352,-170,-279,277,297
32.3119999999999,7246,3206,-670,-568,-284,-206,-248,244,187
32.33399999999983,6858,3388,-690,-616,-176,-271,-234,217,148
32.34600000000046,7034,3212,-1108,-710,-293,-178,-221,203,89
32.36800000000039,6652,3158,-702,-842,-414,-116,-214,170,51
32.38000000000011,6982,3346,-360,-903,-330,-29,-210,101,-11
32.402000000000044,7140,3698,320,-913,-416,-24,-221,92,-34
32.42399999999998,7036,3680,-200,-847,-272,-60,-219,62,-46
32.436000000000604,6774,3512,-572,-897,-328,-4,-230,45,-57
32.45800000000054,6680,3562,-358,-1008,-422,99,-232,17,-98
32.470000000000255,7146,4000,16,-1023,-357,248,-234,2,-86
32.49200000000019,6514,3800,-74,-1020,-162,306,-222,-5,-102
32.503999999999905,7310,3730,-390,-1074,-251,479,-232,-12,-100
32.52599999999984,7208,3412,-290,-1181,-381,524,-225,-12,-107
32.538000000000466,7110,3594,-172,-1275,-254,530,-236,-31,-103
32.5600000000004,7216,3612,364,-1253,-164,549,-231,-31,-103
32.582000000000335,7628,3522,-420,-1232,82,570,-245,-41,-108
32.59400000000005,7330,3268,720,-1282,-56,539,-238,-46,-118
32.615999999999985,7966,3630,522,-1195,-184,387,-234,-45,-126
32.62800000000061,7580,3534,376,-1227,-108,361,-247,-55,-109
32.650000000000546,6932,3350,438,-1241,72,398,-242,-43,-114
32.66200000000026,7104,3458,586,-1266,-94,529,-237,-53,-112
32.6840000000002,7392,3470,616,-1280,-93,565,-243,-51,-108
32.70600000000013,7626,3404,934,-1278,-119,542,-233,-56,-115
32.71799999999985,8242,3292,1216,-1210,-77,547,-244,-60,-117
32.73999999999978,8256,3398,1796,-1169,-18,441,-243,-62,-111
32.75200000000041,8034,3166,1380,-1051,20,448,-243,-69,-118
32.778997999999774,8020,2926,932,-1092,-159,458,-234,-63,-112
32.79100000000017,7952,3088,1894,-1090,-247,433,-240,-67,-120
32.802999999999884,7874,3148,1934,-966,-100,386,-238,-67,-115
32.82499999999982,7734,2998,1784,-874,54,331,-240,-56,-113
32.84699999999975,7966,2856,1504,-866,-89,383,-234,-63,-117
32.85900000000038,8174,2668,1278,-859,-149,368,-244,-78,-114
32.88100000000031,8104,2414,872,-949,-378,323,-244,-70,-121
32.89300000000003,7678,2460,1250,-958,-401,358,-233,-72,-120
32.914999999999964,7614,2636,1930,-888,-257,342,-234,-68,-129
32.92700000000059,7662,2428,1336,-761,-181,304,-227,-63,-126
32.949000000000524,7770,2170,784,-768,-200,293,-240,-77,-118
32.97100000000046,7724,1892,398,-795,-124,287,-242,-70,-131
32.983000000000175,7322,1624,-232,-920,-245,365,-237,-63,-131
33.00500000000011,7842,1828,924,-993,-244,415,-230,-73,-129
33.016999999999825,7752,1800,1102,-933,-166,400,-237,-86,-136
33.03899999999976,8224,1522,656,-883,-262,381,-233,-82,-142
33.051000000000386,8130,1386,620,-989,-364,361,-234,-65,-131
33.07300000000032,7688,1392,860,-1020,-202,359,-234,-83,-131
33.085000000000036,7626,1420,1008,-1017,-99,380,-239,-73,-143
33.10699999999997,7690,1364,1182,-972,-98,398,-240,-87,-130
33.128999999999905,7806,1168,826,-1014,-176,362,-226,-74,-147
33.14100000000053,7242,1130,890,-1082,-267,352,-233,-82,-156
33.163000000000466,7264,1138,1190,-1021,-264,395,-239,-68,-136
33.17500000000018,7460,1270,1636,-888,-79,365,-222,-83,-138
33.197000000000116,7996,1332,2260,-802,-39,232,-230,-78,-136
33.20899999999983,8156,1556,2500,-638,-28,64,-236,-87,-144
33.23099999999977,7768,1478,2302,-550,225,-83,-228,-79,-151
33.25300000000061,7318,1086,1116,-612,240,-63,-224,-89,-142
33.26500000000033,7374,1338,2200,-676,-3,0,-221,-82,-151
33.28700000000026,7808,1558,2638,-547,55,13,-230,-65,-145
33.29899999999998,7748,1280,2372,-487,33,-6,-233,-72,-144
33.32099999999991,8236,1284,2530,-429,153,-27,-236,-79,-142
33.33300000000054,8388,1628,3020,-380,37,-153,-237,-73,-143
33.35500000000047,8024,1770,2850,-204,264,-303,-228,-77,-147
33.37700000000041,7478,1462,2080,-181,259,-324,-225,-70,-136
33.389000000000124,7530,1378,1846,-235,131,-217,-233,-62,-137
33.41100000000006,8014,1502,1984,-245,-19,-186,-228,-67,-144
33.422999999999774,7912,1760,2554,-155,39,-203,-232,-58,-143
33.44500000000062,7866,1740,2166,-32,180,-258,-230,-55,-145
33.457000000000335,8170,1364,1760,-59,39,-274,-238,-64,-142
33.47900000000027,8922,1174,2162,-133,-129,-306,-221,-69,-137
33.490999999999985,9296,1162,2222,-191,-273,-441,-236,-49,-147
33.51299999999992,10080,1712,3342,-106,-181,-771,-236,-56,-142
33.534999999999854,10408,1836,2886,162,29,-1277,-232,-55,-143
33.54700000000048,9312,1644,2140,137,-109,-1771,-232,-58,-129
33.569000000000415,8500,1524,1010,117,-246,-1978,-232,-30,-138
33.58100000000013,7884,2046,1696,-52,-554,-2164,-231,-29,-149
33.603000000000065,7802,2614,1826,21,-473,-2283,-227,-25,-141
33.61499999999978,6550,3008,2106,118,-476,-2473,-231,-8,-149
33.637000000000626,6972,3198,1116,133,-494,-2411,-227,0,-148
33.65900000000056,6270,3496,2232,142,37,-2367,-224,6,-156
33.67100000000028,6026,3732,1040,515,1057,-2230,-219,18,-154
33.69300000000021,5888,4050,682,517,1084,-2151,-220,25,-148
33.70499999999993,6690,3684,-342,528,476,-2028,-211,24,-154
33.72699999999986,6938,4826,1074,402,-188,-2322,-227,37,-143
33.73900000000049,6306,5442,1284,444,-972,-2522,-208,37,-145
33.76100000000042,5598,5132,654,489,-1204,-2516,-204,44,-147
33.78300000000036,5260,5282,2,378,-917,-2421,-202,69,-151
33.79500000000007,4654,5418,2278,262,-1153,-2310,-192,74,-156
33.81700000000001,5344,6440,2944,350,-270,-2111,-184,78,-167
33.82900000000063,6892,6732,1902,678,409,-2314,-178,82,-173
33.85100000000057,5618,6518,1640,766,547,-2738,-173,97,-175
33.863000000000284,3854,6120,206,947,994,-2702,-168,99,-166
33.88500000000022,2014,5990,-318,823,868,-2405,-157,118,-164
33.896999999999935,2728,6122,-470,790,423,-1885,-153,117,-166
33.91899999999987,4262,6510,-288,575,-227,-1773,-151,117,-178
33.9409999999998,4026,7340,2082,710,-87,-2044,-140,116,-179
33.95300000000043,3554,7120,536,896,549,-2242,-117,132,-178
33.975000000000364,2000,6182,-2318,663,-60,-2055,-129,122,-168
33.98700000000008,1800,7362,430,528,-238,-1838,-124,137,-178
34.009000000000015,1874,7876,376,618,130,-1772,-105,132,-187
34.02100000000064,1184,7022,-1610,626,416,-1766,-104,154,-181
34.043000000000575,1166,7648,-698,489,-111,-1608,-100,140,-180
34.06500000000051,716,7658,-838,556,-170,-1511,-104,136,-179
34.077000000000226,394,7550,-630,459,101,-1499,-88,143,-194
34.09900000000016,216,7232,-2056,460,293,-1193,-83,145,-187
34.110999999999876,650,7432,-1538,281,-292,-986,-83,150,-192
34.13299999999981,1102,7594,-926,201,-758,-1113,-76,150,-194
34.14500000000044,1094,7876,298,211,-315,-1300,-66,145,-199
34.16700000000037,-648,7414,-1526,214,62,-1413,-70,139,-193
34.179285000000164,-1734,7068,-3174,-207,-792,-1311,-60,154,-205
34.202000000000226,-1870,7568,-622,-384,-5,-992,-66,158,-197
34.22400000000016,-1436,7706,-522,-299,421,-759,-53,144,-203
34.235999999999876,-720,7692,-828,-187,221,-546,-44,148,-192
34.25799999999981,-1172,7784,84,-178,-280,-432,-53,164,-193
34.27000000000044,-1612,8200,-610,-75,82,-317,-53,149,-193
34.29200000000037,-2514,7986,-1810,-281,-255,-186,-47,160,-190
34.30400000000009,-2352,8282,-204,-48,-1048,-50,-43,156,-191
34.32600000000002,-1000,8222,-170,-38,-264,174,-33,151,-198
34.33800000000065,-1060,8208,-1308,-56,50,199,-42,165,-199
34.36000000000058,-340,8026,-1038,-91,97,309,-48,156,-191
34.38200000000052,-244,7982,-800,-141,142,205,-37,165,-199
34.39400000000023,-310,8308,-34,-295,346,-19,-41,167,-188
34.41600000000017,-538,7928,-1482,-188,780,-141,-38,164,-191
34.427999999999884,-890,7792,-446,-419,332,-270,-43,156,-184
34.44999999999982,-1178,8046,-24,-311,184,-297,-50,151,-188
34.462000000000444,-1648,8064,586,-190,285,-269,-54,158,-178
34.48400000000038,-1810,7800,-560,-125,-98,-23,-31,167,-186
34.50600000000031,-1402,7954,-758,-272,-245,-17,-43,167,-188
34.51800000000003,-1408,8138,-214,-147,-11,-8,-44,168,-185
34.539999999999964,-1304,7898,-634,-191,-128,-7,-49,168,-185
34.55200000000059,-1016,7808,-926,-106,-659,114,-44,168,-173
34.574000000000524,-1246,7302,-1610,-88,-1585,-127,-38,169,-186
34.58600000000024,190,8124,1910,-129,-902,-91,-37,160,-187
34.608000000000175,-596,7986,1802,235,1799,-676,-35,165,-187
34.63000000000011,-1094,7300,-634,91,2482,-708,-26,162,-181
34.641999999999825,-1730,7142,-936,-129,2664,-867,-31,169,-188
34.66399999999976,-1956,6892,-1874,-178,2140,-745,-31,162,-181
34.676000000000386,-2104,6978,-820,-405,1139,-537,-47,168,-173
34.69800000000032,-2092,6808,-1020,-412,336,-302,-32,173,-170
34.710000000000036,-1652,7102,-644,-461,293,-181,-47,160,-166
34.73199999999997,-2356,7142,-1430,-562,475,-344,-44,170,-170
34.7440000000006,-1364,6958,-204,-520,-40,-98,-41,162,-169
34.76600000000053,-1872,7168,164,-755,-308,-259,-43,164,-172
34.78299800000059,-2168,7326,848,-564,-317,-267,-42,158,-168
34.80500000000029,-2308,7248,598,-440,-969,-244,-38,174,-164
34.81700000000001,-2912,7530,-202,-204,-1562,79,-36,182,-157
34.83899999999994,-3038,7490,850,-418,-2114,168,-43,172,-157
34.85100000000057,-1090,8164,1330,-256,-1876,569,-31,177,-157
34.8730000000005,156,8300,1040,-416,-103,235,-36,179,-157
34.88500000000022,-428,8168,1006,-647,416,-125,-24,177,-157
34.90700000000015,-1952,7392,-72,-735,648,-363,-33,177,-162
34.92900000000009,-2674,7346,704,-971,111,-239,-33,182,-164
34.9409999999998,-3440,7446,1612,-938,-19,-71,-35,180,-139
34.96300000000065,-2896,7510,1814,-632,-132,61,-37,193,-139
34.975000000000364,-2034,6976,1596,-645,-570,246,-35,183,-139
34.9970000000003,-1510,6772,1612,-731,-324,377,-31,174,-133
35.009000000000015,-1396,6812,2116,-775,-452,346,-37,186,-144
35.03099999999995,-1104,7068,1930,-759,-538,326,-30,178,-125
35.052999999999884,-886,7234,2592,-899,-470,9,-29,187,-124
35.06500000000051,-1328,6660,1532,-946,-709,-218,-42,183,-127
35.087000000000444,-1550,7086,2662,-1044,-752,-176,-35,180,-125
