Tiempo,AccX,AccY,AccZ,GyrX,GyrY,GyrZ,MagX,MagY,MagZ
0.0,-2168,-2399,7504,-1,-10,-6,-9,-164,143
0.011999999999943611,-2178,-2439,7516,-13,-10,-9,-10,-158,135
0.03399999999987813,-2188,-2365,7500,-11,-22,-11,-10,-163,142
0.04599999999982174,-2164,-2391,7530,-9,-33,-15,-19,-164,136
0.06799999999998363,-2174,-2415,7572,-10,-34,-13,-3,-158,149
0.07999999999992724,-2132,-2363,7532,-12,-33,-18,-14,-177,141
0.10199999999986176,-2112,-2441,7580,-13,-25,-18,-13,-155,144
0.11400000000003274,-2202,-2435,7520,-7,-6,-7,-7,-159,138
0.13599999999996726,-2092,-2435,7564,-4,4,-7,-14,-174,145
0.15799999999990177,-2136,-2373,7516,-7,11,-8,-21,-164,136
0.16999999999984539,-2138,-2407,7522,-6,19,-2,-14,-164,138
0.19200000000000728,-2160,-2421,7482,-7,17,-4,-12,-172,145
0.2089979999998377,-2150,-2393,7510,-8,17,-5,-14,-154,136
0.22100000000000364,-2138,-2399,7518,-6,14,-2,-3,-163,139
0.24299999999993815,-2152,-2425,7508,-5,14,-4,-13,-160,139
0.25499999999988177,-2156,-2395,7530,-3,7,-6,-6,-155,137
0.2769999999998163,-2152,-2387,7522,-3,15,-4,-13,-165,151
0.29899999999997817,-2120,-2447,7640,-5,35,-1,-9,-174,133
0.3109999999999218,-2156,-2409,7488,-1,41,2,-18,-180,144
0.3329999999998563,-2170,-2385,7458,-9,17,0,-12,-172,145
0.3450000000000273,-2206,-2413,7540,-11,5,-5,-15,-165,144
0.3669999999999618,-2164,-2437,7532,-10,2,-4,-7,-164,136
0.3789999999999054,-2174,-2399,7506,-7,-1,-6,-18,-170,147
0.40099999999983993,-2198,-2431,7474,-9,-10,-6,-14,-167,145
0.4230000000000018,-2146,-2355,7520,-9,-20,-11,-14,-156,148
0.43499999999994543,-2164,-2427,7560,-11,-17,-11,-7,-162,129
0.45699999999987995,-2224,-2395,7542,-10,-18,-7,-9,-164,145
0.46899999999982356,-2180,-2377,7526,-13,-12,-10,-10,-158,135
0.49099999999998545,-2166,-2385,7492,-15,-22,-9,-20,-170,139
0.5029999999999291,-2130,-2383,7520,-5,-20,-8,-2,-164,155
0.5249999999998636,-2126,-2423,7546,-11,-15,-13,-2,-162,148
0.5470000000000255,-2162,-2423,7500,-9,-13,-11,-14,-164,126
0.5589999999999691,-2186,-2481,7534,-7,-8,-12,-15,-163,130
0.5809999999999036,-2170,-2351,7524,-11,-11,-8,-8,-160,137
0.5929999999998472,-2176,-2405,7544,-10,-15,-16,-8,-163,130
0.6150000000000091,-2150,-2393,7520,-8,-8,-13,-12,-167,141
0.6269999999999527,-2146,-2433,7562,-10,0,-5,-12,-172,143
0.6489999999998872,-2154,-2403,7552,-8,-4,-4,-1,-163,135
0.6609999999998308,-2182,-2419,7542,-6,-5,-9,-9,-169,138
0.6829999999999927,-2170,-2409,7528,-5,0,-6,-9,-162,143
0.7049999999999272,-2156,-2389,7572,5,2,-8,-3,-170,132
0.7169999999998709,-2130,-2415,7500,3,0,-3,-14,-169,145
0.7390000000000327,-2204,-2419,7504,5,-7,-9,-8,-160,142
0.7509999999999764,-2158,-2409,7548,5,-8,-5,-8,-163,139
0.7729999999999109,-2164,-2413,7522,2,-6,-8,-8,-165,149
0.7849999999998545,-2134,-2369,7528,0,0,-5,-10,-153,154
0.8070000000000164,-2158,-2405,7490,-3,1,-7,-8,-165,139
0.8289999999999509,-2138,-2385,7574,-4,11,-3,-9,-169,141
0.8409999999998945,-2166,-2387,7504,-3,12,-4,-6,-170,142
0.862999999999829,-2176,-2385,7558,-5,26,-5,-7,-172,133
0.875,-2176,-2391,7470,-5,25,-3,7,-174,131
0.8969999999999345,-2178,-2385,7538,-7,21,-1,-21,-159,141
0.9089999999998781,-2176,-2369,7576,-12,26,2,-21,-162,141
0.9309999999998126,-2180,-2385,7616,-9,57,3,-18,-180,144
0.9529999999999745,-2168,-2381,7470,-4,62,5,-8,-163,144
0.9649999999999181,-2210,-2437,7502,-3,49,1,-7,-151,143
0.9869999999998527,-2214,-2397,7432,-2,59,6,-16,-167,129
0.9990000000000236,-2226,-2417,7658,7,72,5,-9,-162,136
1.0209999999999582,-2196,-2413,7748,16,144,24,-21,-167,138
1.0329999999999018,-2358,-2479,7770,31,260,36,-7,-162,138
1.0549999999998363,-2192,-2353,7780,43,304,37,4,-159,136
1.0670000000000073,-2332,-2311,7458,25,278,56,-6,-165,137
1.0889999999999418,-2534,-2293,7286,18,236,51,-7,-162,138
1.1109999999998763,-2422,-2297,7296,6,177,36,-4,-164,143
1.12299999999982,-2568,-2331,7242,-5,106,21,-12,-167,138
1.1449999999999818,-2476,-2339,7388,-7,82,13,4,-159,145
1.1569999999999254,-2522,-2265,7270,-18,16,-4,13,-158,139
1.17899999999986,-2502,-2227,7344,-19,-30,-15,-4,-169,136
1.2010000000000218,-2562,-2323,7416,-27,-78,-25,-14,-162,138
1.2129999999999654,-2466,-2355,7468,-19,-79,-32,-2,-159,138
1.2349999999999,-2410,-2391,7468,-24,-95,-27,1,-168,139
1.2469999999998436,-2446,-2375,7490,-22,-77,-24,-7,-169,141
1.2690000000000055,-2388,-2355,7490,-23,-42,-20,-7,-167,145
1.280999999999949,-2390,-2321,7430,-26,-50,-20,-6,-158,139
1.3029999999998836,-2340,-2361,7398,-28,-56,-19,4,-167,138
1.3149999999998272,-2326,-2485,7572,-37,-42,-5,3,-163,139
1.336999999999989,-2370,-2407,7502,-38,-14,9,-7,-156,141
1.3589999999999236,-2374,-2371,7460,-39,-12,15,3,-165,139
1.3709999999998672,-2406,-2265,7320,-55,-9,3,-4,-169,143
1.393000000000029,-2480,-2301,7418,-82,-21,-15,-13,-170,142
1.4049999999999727,-2474,-2277,7456,-113,-35,-34,-1,-165,144
1.4269999999999072,-2488,-2427,7542,-130,-5,-50,1,-160,135
1.4389999999998508,-2336,-2431,7504,-139,-2,-54,6,-173,144
1.4610000000000127,-2404,-2527,7528,-134,43,-44,-8,-165,137
1.4729999999999563,-2400,-2485,7592,-134,87,-37,-10,-168,142
1.4949999999998909,-2662,-2515,7574,-136,110,-42,1,-180,144
1.5169999999998254,-2720,-2359,7360,-141,74,-78,-3,-160,144
1.5289999999999964,-2536,-2307,7266,-177,-12,-147,8,-178,137
1.5509999999999309,-2242,-2221,7364,-254,-64,-240,-4,-172,141
1.5629999999998745,-1704,-2305,8336,-291,63,-379,-3,-173,142
1.584999999999809,-2572,-2159,7260,-392,31,-440,4,-172,141
1.59699999999998,-2730,-1935,8282,-359,35,-444,-8,-173,142
1.6189999999999145,-3580,-1141,7686,-319,72,-382,-8,-173,139
1.640999999999849,-3720,-809,7996,-304,76,-276,-1,-183,137
1.65300000000002,-2720,-703,8852,-173,66,-240,-4,-182,131
1.6749999999999545,-1972,-289,8112,-50,109,-328,-10,-183,135
1.6869999999998981,-1960,-149,7552,10,33,-440,-12,-184,136
1.7089999999998327,-1842,79,6376,-23,-95,-514,-12,-177,133
1.7210000000000036,-1472,583,5510,-202,-323,-609,-2,-179,143
1.7429999999999382,-1896,95,7344,-423,-365,-717,-15,-175,139
1.7549999999998818,-2846,-1299,9926,-372,-325,-651,-9,-179,141
1.7769999999998163,-3470,-2091,13556,309,-202,-474,-20,-180,130
1.7989999999999782,-4036,-785,9454,690,358,-208,-24,-184,145
1.8109999999999218,-5634,-1923,9902,987,260,172,-23,-175,151
1.8329999999998563,-3738,-1293,8260,1125,145,508,-15,-170,151
1.8450000000000273,-2612,-1423,7526,1068,178,626,-16,-169,160
1.8669999999999618,-2056,-1879,7674,968,134,602,-9,-151,157
1.8889999999998963,-1706,-2241,7760,896,78,506,-9,-162,169
1.90099999999984,-1374,-2039,7552,815,152,361,-4,-136,162
1.9230000000000018,-1654,-2463,8500,745,347,192,-1,-137,151
1.9349999999999454,-2636,-3169,9260,853,524,102,0,-141,155
1.95699999999988,-2984,-3431,9162,1097,464,80,-8,-122,156
1.9689999999998236,-2272,-2989,7652,1211,438,29,-9,-118,155
1.9909999999999854,-1752,-2799,6966,1163,507,-67,4,-108,162
2.002999999999929,-1598,-2647,6678,1049,554,-194,8,-112,161
2.0249999999998636,-1932,-2649,6928,915,585,-289,-7,-98,167
2.0470000000000255,-2528,-3207,7712,931,610,-284,-3,-99,147
2.058999999999969,-2580,-2709,6652,933,531,-204,1,-97,158
2.0809999999999036,-2342,-2423,5664,780,438,-145,-3,-84,144
2.092999999999847,-2270,-2207,5394,535,352,-125,9,-93,153
2.115000000000009,-2492,-1985,5864,308,296,-109,9,-81,145
2.1269999999999527,-2884,-1791,6600,156,242,-67,1,-94,149
2.1489999999998872,-3070,-1529,7016,89,188,-4,8,-84,151
2.160999999999831,-3186,-1471,7620,94,124,84,4,-83,143
2.1829999999999927,-2992,-1181,7798,149,82,156,-2,-96,148
2.209997999999814,-2630,-817,7536,215,66,187,-4,-88,150
2.22199999999998,-2454,-663,7060,205,79,173,8,-82,154
2.2339999999999236,-2462,-743,7164,171,79,131,8,-89,147
2.255999999999858,-2570,-661,7244,161,63,90,8,-79,147
2.268000000000029,-2846,-625,7568,140,103,68,1,-79,142
2.2899999999999636,-3114,-553,7462,160,109,100,9,-88,141
2.3022849999999835,-3166,-563,7582,173,66,129,-4,-73,145
2.3239999999998417,-2934,-405,7540,201,31,157,8,-94,142
2.3460000000000036,-2732,-423,7644,199,34,152,4,-88,145
2.3579999999999472,-2762,-429,7576,236,49,152,6,-79,144
2.3799999999998818,-2748,-325,7338,227,27,145,13,-92,147
2.3919999999998254,-2814,-239,7406,197,7,144,3,-82,139
2.4139999999999873,-2626,-121,7458,206,15,135,0,-86,150
2.425999999999931,-2608,-81,7528,198,35,74,13,-89,147
2.4479999999998654,-2730,-231,7624,215,90,5,-7,-86,136
2.4700000000000273,-2636,-95,7406,219,133,-85,-4,-93,138
2.481999999999971,-2804,-311,7676,229,206,-161,6,-84,144
2.5039999999999054,-3070,-457,7266,240,175,-193,4,-86,138
2.515999999999849,-2938,-695,7374,232,134,-238,10,-89,137
2.538000000000011,-3290,-1085,7110,261,220,-270,0,-86,143
2.5499999999999545,-3456,-1151,6264,237,216,-257,3,-84,142
2.571999999999889,-3686,-1227,5552,93,145,-200,3,-82,156
2.5939999999998236,-3956,-1475,5942,-93,52,-108,3,-64,142
2.6059999999999945,-3986,-1521,6240,-201,8,1,8,-79,144
2.627999999999929,-4082,-1495,6340,-282,-32,124,4,-83,148
2.6399999999998727,-4106,-1963,6552,-302,-145,262,12,-86,143
2.6620000000000346,-3536,-2061,5350,-403,-263,426,6,-87,147
2.673999999999978,-80,483,7514,-687,-170,319,4,-88,150
2.6959999999999127,-4550,1939,8150,-760,-306,150,-2,-81,138
2.7079999999998563,-2138,831,4934,-1002,-499,-139,-6,-89,137
2.730000000000018,-2530,-145,7904,-1191,-612,-369,-4,-101,148
2.7519999999999527,-2580,-1337,8388,-1117,-634,-482,3,-89,142
2.7639999999998963,-2732,-1565,8886,-1072,-591,-532,-3,-105,144
2.785999999999831,-3054,-1105,8134,-1086,-462,-463,-9,-108,141
2.798000000000002,-2812,-1909,8300,-1123,-383,-385,-1,-112,135
2.8199999999999363,-2186,-2101,8414,-1034,-277,-346,0,-118,136
2.83199999999988,-1944,-1879,7998,-952,-101,-303,-7,-129,136
2.8539999999998145,-2472,-2349,8210,-887,39,-286,-15,-125,127
2.8759999999999764,-2648,-2163,8046,-806,90,-266,-18,-135,139
2.88799999999992,-2658,-2397,8078,-729,73,-288,-13,-125,130
2.9099999999998545,-4806,-4127,11392,-492,-171,-250,-12,-126,136
2.9220000000000255,-2904,-2021,7404,-383,-284,-153,-9,-146,126
2.94399999999996,-3182,-2573,7764,-333,-364,-198,-18,-140,132
2.9559999999999036,-2896,-2285,7516,-282,-483,-187,-13,-130,130
2.977999999999838,-2546,-2271,7572,-281,-580,-209,-15,-137,127
3.0,-2712,-2387,7456,-295,-638,-214,-31,-149,124
3.0119999999999436,-1918,-2899,8486,-263,-468,-153,-29,-151,119
3.033999999999878,-2262,-2827,8102,-209,-276,-88,-29,-141,126
3.0459999999998217,-2274,-2739,8108,-148,-136,-36,-21,-149,126
3.0679999999999836,-2366,-2239,7484,-116,-44,-10,-32,-145,125
3.0799999999999272,-2404,-2499,7580,-91,-30,-2,-33,-144,126
3.1019999999998618,-2462,-2515,7412,-84,-55,-10,-33,-151,129
3.1140000000000327,-2300,-2455,7450,-73,-93,-22,-31,-144,124
3.1359999999999673,-2278,-2399,7514,-79,-141,-41,-27,-143,123
3.1579999999999018,-2250,-2423,7408,-77,-172,-49,-27,-155,115
3.1699999999998454,-2234,-2595,7590,-66,-167,-54,-25,-137,120
3.1920000000000073,-2156,-2603,7676,-57,-128,-34,-27,-148,125
3.203999999999951,-2140,-2387,7360,-30,-139,-37,-33,-156,124
3.2259999999998854,-2138,-2561,7596,-49,-130,-43,-30,-145,127
3.237999999999829,-2072,-2443,7522,-47,-123,-40,-33,-149,114
3.259999999999991,-2134,-2543,7524,-55,-119,-43,-44,-145,118
3.2819999999999254,-2062,-2347,7350,-59,-124,-50,-35,-163,120
3.293999999999869,-2082,-2609,7536,-95,-145,-75,-36,-154,124
3.316000000000031,-2166,-2379,7284,-129,-179,-98,-37,-148,118
3.3279999999999745,-2150,-2469,7304,-163,-246,-141,-27,-160,115
3.349999999999909,-1856,-2647,7724,-159,-241,-142,-32,-148,115
3.3619999999998527,-1762,-2837,7924,-141,-178,-112,-46,-154,117
3.3840000000000146,-1810,-2599,7564,-117,-137,-82,-42,-148,115
3.405999999999949,-1748,-2747,7576,-88,-129,-77,-33,-154,117
3.4179999999998927,-1840,-2729,7504,-57,-121,-71,-36,-156,119
3.439999999999827,-1856,-2793,7638,-40,-122,-69,-41,-156,124
3.451999999999998,-1730,-2685,7438,4,-133,-60,-41,-151,114
3.4739999999999327,-1830,-2687,7568,-7,-136,-58,-44,-145,120
3.4859999999998763,-1768,-2787,7616,7,-138,-62,-31,-149,117
3.507999999999811,-1652,-2727,7674,19,-147,-60,-50,-156,126
3.519999999999982,-1730,-2743,7596,26,-134,-56,-35,-150,118
3.5419999999999163,-1696,-2779,7666,34,-137,-51,-43,-156,107
3.563999999999851,-1642,-2761,7644,44,-116,-42,-49,-150,120
3.576000000000022,-1536,-2711,7656,58,-98,-26,-54,-155,115
3.5979999999999563,-1562,-2693,7664,76,-95,-20,-54,-155,115
3.6099999999999,-1584,-2687,7634,88,-92,-16,-39,-150,120
3.6319999999998345,-1534,-2561,7548,93,-78,-16,-38,-144,114
3.6440000000000055,-1612,-2595,7506,84,-77,-20,-41,-151,124
3.66599999999994,-1600,-2585,7590,94,-87,-23,-41,-154,119
3.6879999999998745,-1536,-2537,7586,102,-112,-29,-47,-143,108
3.699999999999818,-1582,-2539,7500,95,-98,-31,-48,-154,124
3.72199999999998,-1500,-2557,7608,61,-115,-31,-52,-163,115
3.7339999999999236,-1452,-2601,7720,71,-101,-27,-54,-158,118
3.755999999999858,-1520,-2521,7596,59,-86,-21,-49,-145,115
3.768000000000029,-1502,-2507,7600,39,-70,-18,-43,-146,121
3.7899999999999636,-1530,-2557,7574,31,-61,-14,-50,-144,126
3.8022849999999835,-1550,-2577,7632,37,-64,-19,-46,-149,109
3.8239999999998417,-1556,-2621,7694,34,-90,-31,-43,-146,117
3.8460000000000036,-1406,-2475,7668,51,-87,-28,-47,-155,111
3.8579999999999472,-1318,-2501,7636,46,-58,-18,-39,-140,118
3.8799999999998818,-1388,-2417,7638,31,-32,-17,-52,-150,115
3.8919999999998254,-1380,-2459,7710,14,-21,-10,-53,-144,114
3.9139999999999873,-1432,-2501,7604,12,2,-2,-49,-148,113
3.925999999999931,-1370,-2489,7630,1,17,-6,-54,-140,118
3.9479999999998654,-1474,-2503,7624,-23,51,-3,-39,-150,127
3.9700000000000273,-1408,-2565,7678,-28,83,0,-42,-145,118
3.981999999999971,-1560,-2315,7624,-58,127,5,-39,-150,123
4.003999999999905,-1644,-2303,7516,-110,140,-16,-48,-151,119
4.015999999999849,-1630,-2443,7632,-167,109,-51,-48,-156,119
4.038000000000011,-1438,-2211,7542,-248,157,-68,-37,-150,118
4.0499999999999545,-1582,-2323,7558,-380,185,-107,-43,-156,117
4.071999999999889,-1588,-2487,7548,-494,197,-137,-43,-144,114
4.093999999999824,-1704,-2531,7518,-602,170,-178,-55,-146,117
4.1059999999999945,-1524,-2517,7492,-719,145,-236,-43,-149,119
4.127999999999929,-896,-2523,7800,-839,268,-309,-53,-151,119
4.139999999999873,-1070,-2847,7872,-951,111,-450,-32,-163,113
4.162000000000035,-1790,-3121,7484,-1075,161,-521,-44,-158,115
4.173999999999978,-1578,-3107,7550,-1141,189,-595,-43,-156,119
4.195999999999913,-1668,-3511,7708,-1204,210,-682,-47,-163,103
4.2129979999999705,-1928,-3921,7534,-1290,270,-761,-52,-178,111
4.2349999999999,-1696,-3819,6904,-1344,278,-820,-43,-172,98
4.246999999999844,-1788,-4221,7370,-1448,131,-796,-52,-160,96
4.2690000000000055,-1816,-4571,7518,-1493,39,-814,-64,-191,103
4.280999999999949,-1792,-4407,7780,-1486,-38,-865,-49,-178,96
4.302999999999884,-3040,-2525,9522,-1197,-225,-825,-50,-187,93
4.314999999999827,-3126,-1017,9498,-841,-330,-719,-59,-186,92
4.336999999999989,-3488,-309,9160,-539,-157,-573,-65,-202,78
4.349285000000009,-4118,-861,10126,-125,6,-450,-58,-202,83
4.370999999999867,-4208,-287,8004,186,-27,-262,-67,-212,78
4.393000000000029,-4860,-819,7452,305,5,9,-62,-199,81
4.404999999999973,-4656,-1225,7420,377,87,384,-52,-203,82
4.426999999999907,-4016,-1471,7648,472,90,686,-50,-199,90
4.438999999999851,-3018,-1707,8032,621,125,845,-54,-203,89
4.461000000000013,-2334,-1823,8182,740,174,942,-55,-210,83
4.472999999999956,-1998,-2079,8650,930,132,987,-54,-218,89
4.494999999999891,-1528,-2065,8460,1103,90,958,-46,-217,90
4.516999999999825,-1616,-2299,8150,1198,51,905,-52,-218,101
4.528999999999996,-2012,-2669,8648,1283,16,872,-46,-225,102
4.550999999999931,-2308,-2743,8534,1411,12,858,-41,-222,107
4.5629999999998745,-2148,-2493,7846,1455,79,837,-37,-218,118
4.584999999999809,-2136,-2585,8094,1442,111,839,-20,-224,127
4.59699999999998,-2582,-3095,9184,1382,221,827,-19,-207,126
4.6189999999999145,-2542,-3071,8712,1518,245,922,-18,-183,147
4.640999999999849,-2566,-3371,8416,1534,221,958,-16,-189,155
4.65300000000002,-2560,-3511,8542,1505,154,987,-1,-180,156
4.6749999999999545,-2194,-3461,8088,1448,259,984,2,-162,167
4.686999999999898,-2258,-3401,7240,1310,200,891,4,-149,150
4.708999999999833,-2352,-4053,8426,1215,84,781,13,-148,139
4.721000000000004,-1942,-4489,9272,1309,199,667,1,-130,137
4.742999999999938,-1464,-4141,8502,1356,413,498,1,-115,139
4.754999999999882,-1364,-4249,8260,1392,608,345,0,-121,143
4.776999999999816,-1334,-3925,7244,1398,575,200,7,-108,143
4.798999999999978,-894,-3273,5986,1257,495,40,7,-106,136
4.810999999999922,-970,-2875,6152,1031,488,-129,13,-117,130
4.832999999999856,-1546,-3177,7684,938,573,-280,13,-117,147
4.845000000000027,-2344,-2651,7368,1002,512,-356,16,-111,133
4.866999999999962,-2630,-1951,6628,932,441,-359,12,-101,141
4.878999999999905,-3060,-1789,6674,806,392,-283,10,-94,127
4.90099999999984,-3208,-1401,6514,670,361,-144,14,-86,136
4.923000000000002,-3228,-1351,6442,532,320,1,16,-91,138
4.934999999999945,-2784,-1041,6402,371,248,108,20,-94,127
4.95699999999988,-2856,-1809,7690,337,222,194,14,-96,136
4.968999999999824,-2174,-1293,7130,367,169,231,20,-92,135
4.9909999999999854,-1858,-1349,6966,323,171,158,15,-94,142
5.002999999999929,-1986,-1275,7134,321,166,61,13,-92,132
5.024999999999864,-2082,-1135,6754,288,137,-35,21,-86,124
5.0470000000000255,-2506,-1011,6492,212,114,-88,20,-94,139
5.058999999999969,-3150,-1259,6872,148,67,-105,24,-93,133
5.080999999999904,-3566,-1307,6736,151,8,-39,12,-93,133
5.092999999999847,-3540,-1255,6006,82,-29,63,18,-92,130
5.115000000000009,-3464,-1395,6000,-55,-84,152,25,-97,132
5.126999999999953,-3402,-1501,5828,-185,-177,194,18,-92,135
5.148999999999887,-3542,-1389,5982,-319,-171,162,15,-92,127
5.160999999999831,-3746,-1329,6690,-379,-130,122,18,-94,135
5.182999999999993,-3846,-1291,6526,-403,-18,118,9,-96,131
5.204999999999927,-3694,-1609,6182,-450,6,115,24,-93,131
5.216999999999871,-4096,-723,152,-1170,-885,86,9,-101,119
5.239000000000033,-4190,171,9434,-1235,-553,190,18,-92,135
5.250999999999976,-1196,1059,7418,-1316,-563,111,20,-107,125
5.272999999999911,-338,-529,9002,-1449,-628,-164,7,-113,112
5.2849999999998545,792,-1171,9796,-1295,-279,-310,7,-116,121
5.307000000000016,-14,-799,8868,-1247,-30,-549,13,-117,115
5.328999999999951,-2002,-767,6920,-1341,248,-553,4,-124,109
5.3409999999998945,-3488,-1349,7652,-1556,416,-519,-2,-136,105
5.362999999999829,-3044,-2879,9500,-1365,403,-488,9,-139,109
5.375,-2922,-1867,7940,-1179,347,-599,13,-137,106
5.3969999999999345,-4432,-2411,7212,-1118,221,-630,8,-137,103
5.408999999999878,-4676,-2797,7482,-1047,-75,-543,14,-141,95
5.430999999999813,-4574,-3423,7364,-570,-731,-319,7,-149,95
5.4529999999999745,-2456,-2853,9172,-516,-838,-343,-1,-145,89
5.464999999999918,-3010,-2791,8212,-377,-799,-298,-1,-160,96
5.486999999999853,-2320,-2841,8148,-345,-759,-271,2,-149,83
5.499000000000024,-2188,-2803,8296,-263,-609,-207,-2,-159,88
5.520999999999958,-2202,-2759,8004,-230,-475,-150,-10,-148,92
5.532999999999902,-2038,-2529,7888,-191,-340,-75,-2,-149,90
5.554999999999836,-2192,-2551,7710,-181,-225,-23,-4,-164,90
5.567000000000007,-2014,-2693,7982,-161,-97,28,-12,-154,95
5.588999999999942,-2200,-2613,7686,-113,68,82,-13,-155,92
5.610999999999876,-2108,-2757,7918,-75,155,107,0,-149,95
5.62299999999982,-2442,-2449,7480,-57,179,115,-12,-156,98
5.644999999999982,-2658,-2499,7318,-55,150,100,-15,-150,89
5.656999999999925,-2406,-2403,7392,-62,160,88,1,-158,94
5.67899999999986,-2630,-2445,7396,-73,105,57,-2,-154,88
5.691000000000031,-2684,-2469,7424,-75,46,28,1,-148,89
5.712999999999965,-2370,-2455,7318,-50,103,36,4,-151,81
5.7349999999999,-2388,-2363,7236,-48,70,28,-6,-150,92
5.746999999999844,-2444,-2365,7296,-61,10,3,4,-146,93
5.7690000000000055,-2448,-2523,7436,-72,-18,-16,-2,-159,100
5.780999999999949,-2400,-2511,7408,-64,2,-24,6,-163,84
5.802999999999884,-2398,-2429,7448,-63,-1,-29,-9,-162,93
5.814999999999827,-2406,-2491,7484,-53,17,-33,6,-155,89
5.836999999999989,-2434,-2515,7388,-51,40,-27,-7,-162,83
5.858999999999924,-2480,-2609,7386,-37,44,-26,-2,-162,86
5.870999999999867,-2496,-2525,7334,-26,2,-30,-12,-164,93
5.893000000000029,-2454,-2613,7392,-35,-19,-40,-8,-165,94
5.904999999999973,-2472,-2517,7286,-26,-40,-41,-3,-158,89
5.926999999999907,-2450,-2531,7346,-26,-61,-48,1,-165,89
5.938999999999851,-2400,-2655,7556,-33,-65,-44,1,-163,84
5.961000000000013,-2412,-2615,7526,-24,-29,-32,-3,-143,94
5.972999999999956,-2402,-2611,7490,-13,-6,-20,-6,-148,92
5.994999999999891,-2418,-2621,7430,-9,5,-17,3,-160,99
6.016999999999825,-2478,-2519,7318,-3,15,-14,-1,-150,87
6.028999999999996,-2436,-2605,7362,-7,21,-17,-2,-159,88
6.050999999999931,-2364,-2597,7562,3,55,-15,-2,-156,81
6.0629999999998745,-2438,-2501,7360,-1,134,-23,-4,-156,86
6.084999999999809,-2448,-2401,7238,-28,144,-51,-6,-148,80
6.09699999999998,-2490,-2539,7450,-52,142,-70,-7,-156,98
6.1189999999999145,-2352,-2627,7572,-37,271,-66,-1,-160,94
6.140999999999849,-2512,-2545,7192,-47,295,-62,8,-155,89
6.15300000000002,-2644,-2571,7212,-71,220,-66,-3,-160,87
6.1749999999999545,-2700,-2641,7174,-84,142,-77,0,-156,95
6.186999999999898,-2722,-2521,7082,-99,53,-103,-3,-148,84
6.213997999999947,-2636,-2603,7274,-107,1,-107,2,-162,90
6.225999999999885,-2586,-2735,7324,-111,-27,-110,3,-160,84
6.237999999999829,-2592,-2799,7426,-104,-43,-84,-6,-163,89
6.259999999999991,-2560,-2795,7282,-96,-37,-74,-1,-160,84
6.281999999999925,-2582,-2737,7298,-92,-38,-71,2,-167,83
6.293999999999869,-2626,-2845,7458,-79,-28,-70,1,-155,84
6.316000000000031,-2558,-2869,7400,-87,-39,-63,3,-160,94
6.3279999999999745,-2496,-2819,7252,-78,-45,-49,-1,-153,84
6.349999999999909,-2434,-2723,7230,-75,-27,-33,-2,-156,76
6.361999999999853,-2428,-2697,7264,-72,-28,-32,-1,-160,82
6.3840000000000146,-2546,-2695,7182,-75,-6,-36,9,-164,81
6.405999999999949,-2606,-2693,7152,-94,-28,-47,1,-158,92
6.417999999999893,-2622,-2715,7204,-113,-47,-67,9,-162,88
6.439999999999827,-2536,-2881,7320,-125,-35,-72,-7,-164,81
6.451999999999998,-2570,-2731,7298,-143,-30,-75,2,-151,86
6.473999999999933,-2504,-2847,7294,-187,22,-78,9,-162,81
6.485999999999876,-2438,-2829,7360,-217,61,-80,0,-159,93
6.507999999999811,-2368,-2839,7398,-268,85,-84,7,-159,83
6.519999999999982,-2458,-2617,7326,-371,142,-88,-1,-163,87
6.541999999999916,-2604,-2647,7148,-491,166,-135,-4,-174,98
6.563999999999851,-2594,-2679,7500,-597,276,-169,-4,-172,88
6.576000000000022,-2620,-2845,7428,-744,349,-276,-2,-154,78
6.597999999999956,-2772,-2955,7258,-915,431,-415,-2,-172,86
6.6099999999999,-2806,-3119,7350,-1107,467,-579,-7,-162,83
6.6319999999998345,-2822,-3315,7740,-1300,473,-732,1,-170,75
6.653999999999996,-2808,-3547,7174,-1460,482,-883,-4,-182,64
6.66599999999994,-2576,-3721,6852,-1632,493,-999,-12,-184,59
6.6879999999998745,-2750,-4345,8470,-1696,518,-1112,0,-174,59
6.699999999999818,-3514,-4707,7986,-1660,439,-1192,-6,-183,60
6.72199999999998,-5922,-1523,9880,-1139,18,-1051,0,-182,59
6.733999999999924,-5034,267,8812,-740,-238,-782,-16,-194,52
6.755999999999858,-5424,267,8770,-421,-140,-492,-9,-187,52
6.768000000000029,-4458,449,7610,-177,-205,-293,-18,-188,51
6.789999999999964,-4486,235,8196,48,-283,-91,-25,-188,46
6.8022849999999835,-4432,327,7834,334,-216,157,-15,-203,53
6.823999999999842,-4480,-83,8444,546,-281,379,-31,-199,43
6.846000000000004,-3868,89,7566,795,-325,611,-30,-201,39
6.857999999999947,-3822,-805,8930,950,-366,720,-23,-198,37
6.879999999999882,-3866,-977,8564,1174,-394,829,-32,-206,39
6.891999999999825,-3976,-1673,9162,1406,-334,904,-37,-208,34
6.913999999999987,-3912,-2223,8260,1603,-315,993,-29,-220,38
6.935999999999922,-3300,-2987,8546,1746,-379,1023,-37,-231,44
6.947999999999865,-1912,-2817,8060,1695,-403,902,-32,-234,58
6.970000000000027,-2778,-3277,8828,1671,-409,737,-25,-236,60
6.981999999999971,-2690,-3057,8004,1616,-202,647,-27,-246,80
7.003999999999905,-3426,-3381,9286,1536,-286,601,-32,-241,84
7.015999999999849,-3534,-3899,10734,1683,69,640,-23,-231,108
7.038000000000011,-3384,-3309,9184,1737,236,770,-25,-221,115
7.0499999999999545,-3170,-3241,8740,1743,285,826,-24,-230,117
7.071999999999889,-3034,-3411,8748,1722,197,806,-18,-226,130
7.093999999999824,-2880,-3679,9064,1727,196,743,-15,-211,139
7.1059999999999945,-2720,-4773,10424,1917,404,666,-9,-199,150
7.127999999999929,-1522,-3727,7542,2008,563,497,-16,-199,145
7.139999999999873,-1194,-3465,6666,1838,657,185,-10,-191,170
7.162000000000035,-2110,-4021,7734,1739,797,-48,1,-170,175
7.173999999999978,-2026,-3539,6992,1700,841,-161,-2,-169,181
7.195999999999913,-1704,-3313,6578,1533,871,-263,-2,-174,188
7.217999999999847,-2178,-3647,7436,1448,812,-267,-1,-160,194
7.230000000000018,-2016,-3151,6400,1401,549,-190,13,-145,199
7.251999999999953,-1698,-2541,5544,1187,426,-187,21,-136,205
7.263999999999896,-2292,-2457,5614,943,389,-178,14,-131,205
7.285999999999831,-2934,-2109,5706,776,302,-99,8,-107,209
7.298000000000002,-2956,-1757,5986,595,213,13,27,-115,221
7.319999999999936,-3144,-1771,6484,513,195,133,30,-99,213
7.33199999999988,-2804,-1239,6028,441,102,212,37,-105,213
7.3539999999998145,-2640,-987,5988,318,8,236,30,-110,211
7.375999999999976,-2422,-879,6008,208,-35,217,36,-106,227
7.38799999999992,-2662,-439,6052,101,-50,183,36,-101,222
7.4099999999998545,-3264,-723,6806,41,-66,178,33,-101,219
7.4220000000000255,-3336,-395,6564,39,-91,237,31,-108,229
7.44399999999996,-3444,-519,6240,-48,-133,316,30,-94,230
7.455999999999904,-3492,-743,5674,-156,-221,443,41,-101,227
7.477999999999838,-3242,-991,5608,-340,-306,589,31,-93,239
7.5,-3116,-1219,5826,-515,-469,702,41,-98,229
7.511999999999944,-2662,-1369,5638,-694,-519,767,25,-102,223
7.533999999999878,-2584,-1429,5822,-891,-624,806,36,-116,239
7.545999999999822,-1646,-1057,6960,-1009,-680,770,30,-105,223
7.567999999999984,-6096,3841,3734,-1208,833,-515,27,-110,225
7.579999999999927,-3552,921,8336,-1304,42,-1223,27,-127,225
7.601999999999862,-5468,-933,7792,-1338,-292,-1142,24,-126,231
7.614000000000033,-7014,-1347,7964,-1314,-301,-856,18,-130,228
7.635999999999967,-5410,-1135,7568,-1368,-499,-541,18,-145,221
7.657999999999902,-2692,-1559,9418,-1275,-546,-391,23,-160,218
7.669999999999845,-1210,-1901,10658,-1030,-287,-397,14,-169,219
7.692000000000007,-1608,-1517,9668,-849,50,-400,19,-172,227
7.703999999999951,-2838,-1209,8072,-816,362,-235,7,-179,219
7.725999999999885,-3304,-1761,8730,-810,704,-69,13,-175,228
7.737999999999829,-2936,-1339,8288,-740,808,-7,13,-178,218
7.759999999999991,-3324,-1345,7788,-641,790,-61,29,-187,222
7.781999999999925,-4274,-1269,6968,-580,665,-99,18,-193,221
7.793999999999869,-4488,-1075,6522,-571,432,-119,27,-186,213
7.816000000000031,-3988,-1237,6772,-613,312,-107,35,-201,216
7.8279999999999745,-3684,-1449,7222,-644,292,-97,27,-201,204
7.849999999999909,-3170,-1809,8068,-585,287,-136,29,-192,207
7.861999999999853,-4172,-2141,7620,-478,313,-98,47,-211,213
7.8840000000000146,-3904,-1983,7530,-454,269,-16,32,-208,211
7.905999999999949,-3958,-2317,8048,-309,221,-17,26,-215,207
7.917999999999893,-4168,-2181,7556,-204,220,23,31,-207,198
7.939999999999827,-4074,-1735,6918,-152,166,14,38,-207,207
7.951999999999998,-4088,-1743,6894,-129,63,-13,39,-216,211
7.973999999999933,-3932,-1739,7122,-75,10,-36,39,-221,221
7.985999999999876,-3974,-1599,7052,-35,-3,-66,37,-224,211
8.00799999999981,-3800,-1583,6794,-51,-99,-112,50,-217,207
8.019999999999982,-3474,-1327,6362,-50,-210,-201,31,-210,196
8.041999999999916,-3822,-1281,5974,-96,-425,-299,38,-230,210
8.06399999999985,-4044,-1691,6800,-123,-663,-385,49,-218,206
8.076000000000022,-3510,-1729,6820,-93,-774,-408,37,-213,206
8.097999999999956,-3594,-2149,7140,-118,-879,-435,20,-213,194
8.1099999999999,-3340,-2085,6978,-107,-953,-410,20,-224,209
8.131999999999834,-3252,-2319,7414,-158,-1031,-388,13,-224,206
8.153999999999996,-2942,-1749,6672,-197,-1115,-372,6,-244,199
8.16599999999994,-2950,-2011,7146,-267,-1226,-347,6,-216,209
8.187999999999874,-2722,-2021,6850,-281,-1422,-371,-2,-225,203
8.199999999999818,-2664,-2591,7862,-430,-1555,-364,-4,-232,203
8.216997999999876,-1498,-3139,9474,-349,-1213,-318,-15,-226,202
8.239000000000033,-1330,-2469,8264,-203,-665,-191,-25,-236,197
8.250999999999976,-1626,-2635,8138,-182,-371,-92,-33,-227,196
8.27299999999991,-1778,-2481,7852,-82,-205,-49,-27,-236,197
8.284999999999854,-1864,-2463,7654,-32,-142,-29,-30,-244,199
8.307000000000016,-1864,-2551,7770,-25,-104,-23,-33,-232,198
8.32899999999995,-1844,-2427,7626,9,-96,-27,-38,-215,198
8.340999999999894,-1906,-2403,7604,16,-87,-24,-29,-232,193
8.362999999999829,-1702,-2371,7708,15,-77,-19,-32,-231,199
8.375,-1766,-2295,7588,10,-56,-12,-35,-231,204
8.396999999999935,-1764,-2329,7622,-17,-40,-8,-46,-240,200
8.408999999999878,-1746,-2311,7582,-25,-40,-8,-27,-229,211
8.430999999999813,-1790,-2321,7482,-33,-42,-10,-36,-237,205
8.452999999999975,-1870,-2321,7588,-46,-65,-24,-39,-234,202
8.464999999999918,-1784,-2367,7642,-51,-65,-31,-41,-225,203
8.486999999999853,-1844,-2353,7570,-77,-73,-40,-37,-236,190
8.499000000000024,-1782,-2223,7442,-92,-65,-50,-43,-240,198
8.520999999999958,-1758,-2305,7502,-117,-82,-54,-46,-232,196
8.532999999999902,-1786,-2445,7608,-135,-80,-60,-41,-245,200
8.554999999999836,-1656,-2423,7598,-139,-77,-67,-49,-246,194
8.567000000000007,-1694,-2455,7644,-145,-61,-61,-46,-237,200
8.588999999999942,-1524,-2595,7672,-154,-46,-62,-44,-231,197
8.610999999999876,-1416,-2563,7700,-150,5,-35,-41,-243,191
8.62299999999982,-1644,-2507,7586,-161,46,-21,-47,-239,194
8.644999999999982,-1702,-2499,7484,-198,56,-23,-38,-243,191
8.656999999999925,-1618,-2691,7844,-252,84,-16,-43,-237,188
8.67899999999986,-1672,-2509,7694,-263,161,-16,-46,-255,193
8.691000000000031,-1852,-2573,7630,-304,224,-14,-46,-245,196
8.712999999999965,-1886,-2679,7654,-345,245,-38,-35,-244,190
8.7349999999999,-1792,-2677,7574,-395,256,-49,-31,-248,191
8.746999999999844,-2018,-2743,7454,-470,248,-71,-44,-244,197
8.769000000000005,-1770,-2711,7504,-578,265,-108,-38,-248,188
8.780999999999949,-1934,-2717,7426,-708,275,-154,-36,-248,184
8.802999999999884,-1698,-2603,7714,-825,387,-221,-24,-255,191
8.814999999999827,-2072,-2987,7698,-934,360,-323,-41,-258,186
8.836999999999989,-2308,-3191,7686,-1036,479,-421,-33,-270,181
8.858999999999924,-2310,-3351,7202,-1214,444,-578,-29,-263,179
8.870999999999867,-2256,-3481,7296,-1315,456,-706,-30,-274,170
8.893000000000029,-2352,-3825,7118,-1443,425,-767,-30,-267,158
8.904999999999973,-1660,-2207,4896,-1532,517,-761,-31,-286,162
8.926999999999907,-1884,-5465,9058,-1713,404,-887,-37,-289,154
8.93899999999985,-2176,-3827,6454,-1814,80,-977,-33,-303,155
8.961000000000013,-2590,-5223,7522,-1779,8,-994,-42,-299,154
8.972999999999956,-4430,-2737,10880,-1294,-346,-914,-49,-310,135
8.99499999999989,-3626,177,9724,-774,-477,-704,-53,-316,124
9.016999999999825,-3382,-537,9028,-370,-461,-545,-47,-315,132
9.028999999999996,-4438,383,8622,76,-388,-394,-62,-313,126
9.05099999999993,-4488,339,8280,289,-319,-211,-56,-320,130
9.062999999999874,-4830,25,8764,672,-223,78,-56,-307,125
9.084999999999809,-4564,61,8030,961,-203,346,-52,-302,137
9.09699999999998,-4144,-255,8486,1226,-108,582,-55,-301,145
9.118999999999915,-4072,-559,8198,1456,-79,780,-64,-294,151
9.140999999999849,-3610,-1105,8288,1614,-37,926,-39,-284,158
9.15300000000002,-3526,-1725,8206,1707,-3,1010,-42,-269,166
9.174999999999955,-3324,-2057,8258,1771,18,1058,-41,-273,169
9.186999999999898,-3116,-2261,8050,1760,78,1073,-50,-263,179
9.208999999999833,-3228,-2695,8474,1722,70,1067,-33,-243,179
9.221000000000004,-2884,-2811,8228,1663,-46,1043,-26,-237,188
9.242999999999938,-2278,-2857,7562,1546,-205,953,-26,-230,186
9.254999999999882,-664,-2127,9696,1368,-556,792,-25,-224,187
9.276999999999816,-1616,-2861,8524,1209,-518,530,-29,-217,200
9.298999999999978,-2464,-4343,12476,1308,-81,409,-20,-226,182
9.310999999999922,-3428,-4677,11908,1752,539,560,-27,-196,194
9.332999999999856,-2996,-3907,8484,1895,742,705,-18,-196,190
9.345000000000027,-2286,-3593,7094,1712,760,792,-18,-180,211
9.366999999999962,-1724,-3381,6636,1421,691,807,-6,-193,221
9.378999999999905,-1748,-3807,7974,1253,526,782,-12,-179,215
9.40099999999984,-1046,-3393,8132,1186,740,687,-3,-180,213
9.423000000000002,-728,-3325,8496,1131,866,536,0,-162,227
9.434999999999945,-1864,-3965,8502,1220,1043,545,6,-155,233
9.45699999999988,-1596,-3365,7468,1220,672,539,23,-158,228
9.468999999999824,-698,-2533,6684,1078,474,434,20,-150,237
9.490999999999985,-1156,-2799,7270,1046,377,276,25,-125,247
9.502999999999929,-1112,-2181,7962,1082,352,129,26,-124,251
9.524999999999864,-1840,-2065,6622,1143,373,28,30,-125,242
9.547000000000025,-2796,-1583,5862,926,314,30,32,-115,249
9.558999999999969,-3720,-1659,5982,757,199,191,38,-108,253
9.580999999999904,-3510,-1379,5762,597,71,393,50,-96,258
9.592999999999847,-3284,-1375,5512,396,53,534,44,-97,254
9.615000000000009,-3366,-1567,5298,188,16,640,49,-87,254
9.626999999999953,-3468,-2043,4730,-45,-43,776,42,-77,261
9.648999999999887,-3624,-2667,4820,-298,-221,864,49,-84,266
9.66099999999983,-3312,-2771,5056,-484,-309,908,46,-73,260
9.682999999999993,-3216,-2727,4556,-678,-358,902,48,-91,258
9.704999999999927,-3396,-2993,4388,-905,-419,897,42,-84,254
9.71699999999987,880,-2241,964,-1618,145,560,56,-97,264
9.739000000000033,-2288,-4815,-172,-2478,-194,-82,37,-97,256
9.750999999999976,-4646,-1009,14226,-2288,-610,-207,49,-99,256
9.77299999999991,892,-617,6584,-2189,-383,-498,37,-122,252
9.794999999999845,1038,-2571,12144,-2033,-528,-890,42,-137,247
9.807000000000016,-1244,-2687,9390,-1766,-655,-1181,39,-143,254
9.82899999999995,-4044,-2915,8342,-1743,-502,-972,24,-154,255
9.840999999999894,-3616,-3729,10036,-1668,-292,-687,19,-172,255
9.862999999999829,-2034,-3223,9792,-1399,-245,-578,19,-177,243
9.875,-3460,-3517,9078,-1155,-241,-519,19,-179,243
9.896999999999935,-4098,-4303,9244,-705,-523,-317,15,-183,247
9.908999999999878,-2334,-2625,8766,-615,-764,-268,14,-189,236
9.930999999999813,-3278,-2547,7502,-538,-824,-260,4,-194,234
9.942999999999984,-1396,-3267,9150,-501,-721,-220,2,-197,236
9.964999999999918,-1900,-2805,8304,-382,-456,-131,3,-208,228
9.986999999999853,-1586,-2839,8326,-356,-218,-56,-7,-205,236
9.999000000000024,-1742,-2767,8050,-297,-15,6,-8,-208,228
10.020999999999958,-2024,-2885,8062,-251,127,34,-13,-201,237
10.032999999999902,-1872,-2511,7590,-170,292,92,-4,-212,227
10.054999999999836,-2156,-2617,7526,-143,300,88,-2,-215,234
10.067000000000007,-2090,-2415,7410,-133,242,49,-8,-208,235
10.088999999999942,-2110,-2649,7562,-155,194,9,-6,-221,233
10.110999999999876,-2206,-2591,7482,-101,164,1,-4,-217,229
10.12299999999982,-2074,-2649,7504,-63,96,-5,8,-218,230
10.144999999999982,-2178,-2723,7480,-31,41,-8,7,-222,224
10.156999999999925,-2128,-2687,7474,-20,0,-9,2,-217,231
10.17899999999986,-2242,-2631,7422,-5,-57,-17,8,-221,221
10.191000000000031,-2206,-2625,7352,-2,-139,-37,-2,-207,229
10.217997999999852,-2164,-2657,7438,1,-183,-44,2,-215,231
10.230000000000018,-2072,-2525,7384,34,-236,-62,4,-227,224
10.251999999999953,-2200,-2333,7190,36,-345,-128,-10,-218,218
10.263999999999896,-2146,-2565,7418,36,-388,-130,4,-215,231
10.28599999999983,-2042,-2601,7398,39,-419,-144,-16,-210,227
10.298000000000002,-1886,-2661,7678,32,-410,-163,-4,-217,219
10.319999999999936,-1716,-2617,7692,14,-346,-156,-12,-210,222
10.33199999999988,-1760,-2657,7640,6,-281,-119,-12,-220,231
10.353999999999814,-1600,-2673,7612,-20,-228,-109,-19,-212,234
10.375999999999976,-1630,-2599,7566,-15,-197,-86,-23,-224,228
10.38799999999992,-1608,-2589,7628,-33,-182,-90,-19,-217,224
10.409999999999854,-1612,-2659,7622,-23,-170,-89,-24,-210,222
10.422000000000025,-1444,-2675,7582,-10,-140,-76,-18,-213,228
10.44399999999996,-1466,-2679,7582,-11,-116,-70,-27,-216,225
10.455999999999904,-1402,-2553,7612,-3,-100,-52,-30,-211,228
10.477999999999838,-1492,-2633,7596,-10,-75,-55,-25,-213,233
10.490290999999843,-1450,-2581,7614,-14,-52,-51,-21,-212,217
10.511999999999944,-1456,-2561,7584,-26,-38,-54,-38,-217,229
10.533999999999878,-1442,-2651,7702,-43,-69,-62,-31,-207,227
10.545999999999822,-1394,-2623,7586,-52,-51,-75,-29,-215,231
10.567999999999984,-1612,-2691,7674,-52,-53,-75,-33,-212,219
10.579999999999927,-1388,-2823,7648,-25,-45,-60,-30,-218,218
10.601999999999862,-1396,-2657,7648,-19,-47,-36,-21,-217,222
10.614000000000033,-1402,-2591,7612,-30,-10,-36,-30,-208,235
10.635999999999967,-1458,-2609,7488,-22,-37,-43,-30,-224,223
10.657999999999902,-1396,-2683,7574,-14,-30,-55,-25,-221,230
10.669999999999845,-1314,-2653,7626,-20,-20,-52,-26,-217,229
10.692000000000007,-1200,-2715,7592,-48,-15,-44,-37,-211,223
10.70399999999995,-1396,-2645,7624,-102,24,-33,-31,-210,229
10.725999999999885,-1406,-2575,7576,-179,53,-44,-21,-215,224
10.737999999999829,-1640,-2537,7572,-267,49,-80,-39,-213,223
10.759999999999991,-1728,-2517,7586,-350,29,-161,-27,-218,221
10.781999999999925,-1820,-2367,7586,-471,-12,-275,-27,-224,233
10.793999999999869,-1838,-2437,7656,-606,-101,-426,-33,-212,229
10.816000000000031,158,-2855,10370,-854,13,-629,-31,-222,219
10.827999999999975,-1748,-2405,8228,-772,-158,-763,-39,-236,221
10.849999999999909,-1312,-3041,7644,-992,-361,-851,-39,-236,221
10.861999999999853,-1308,-3531,8202,-1176,-1056,-1127,-37,-236,206
10.884000000000015,-1284,-3785,7942,-1283,-1509,-1160,-42,-236,197
10.895999999999958,-1198,-3733,7992,-1423,-1805,-1095,-59,-244,197
10.917999999999893,-1098,-4149,7856,-1533,-2009,-951,-64,-246,202
10.939999999999827,-2840,-1079,9446,-1250,-1943,-583,-77,-258,184
10.951999999999998,-2804,-569,13792,-912,-1098,-96,-88,-251,180
10.973999999999933,-4460,371,7768,-343,-495,344,-100,-264,173
10.985999999999876,-3550,-37,8132,-230,-319,754,-100,-272,168
11.00799999999981,-3858,-283,8650,109,-236,1107,-99,-268,174
11.019999999999982,-3598,-281,8152,332,-255,1396,-106,-265,172
11.041999999999916,-3948,-721,8428,547,-225,1683,-93,-267,166
11.06399999999985,-3824,-1007,8756,766,-193,1973,-94,-273,172
11.076000000000022,-3104,-1381,8280,949,-164,2224,-83,-264,168
11.097999999999956,-2364,-1919,8160,1047,-124,2328,-66,-259,168
11.1099999999999,-2524,-2575,8420,1133,-138,2339,-56,-277,182
11.131999999999834,-2790,-3017,8522,1266,-216,2338,-62,-255,184
11.144000000000005,-2950,-3187,7800,1307,-220,2316,-52,-254,182
11.16599999999994,-3404,-3425,7794,1246,-206,2315,-46,-253,193
11.187999999999874,-3668,-3813,7612,1165,-173,2364,-37,-241,202
11.199999999999818,-4034,-4057,7394,1024,-130,2432,-26,-232,200
11.22199999999998,-4270,-4417,7458,857,-48,2524,-25,-221,209
11.233999999999924,-4360,-4987,7880,747,-141,2625,-8,-213,206
11.255999999999858,-3458,-4675,7778,707,-192,2651,-10,-208,213
11.268000000000029,-2912,-4249,7184,540,-210,2578,-9,-210,210
11.289999999999964,-3174,-4223,7068,405,-155,2456,-1,-198,211
11.302284999999983,-2476,-3923,7302,279,-134,2265,-2,-197,210
11.323999999999842,-2430,-3457,7016,195,46,2047,9,-189,219
11.346000000000004,-2822,-3695,8278,105,286,1819,25,-186,213
11.357999999999947,-3740,-4527,9928,377,260,1669,14,-179,215
11.379999999999882,-2270,-3457,8058,740,246,1491,21,-167,215
11.391999999999825,-1458,-2799,6770,742,356,1170,38,-169,207
11.413999999999987,-1806,-2887,6700,665,512,845,38,-159,196
11.42599999999993,-2240,-2679,6290,555,638,608,39,-153,199
11.447999999999865,-2956,-3251,6952,400,813,483,41,-144,193
11.470000000000027,-4228,-4435,9106,605,805,508,52,-137,178
11.481999999999971,-3194,-3125,6996,824,712,583,59,-130,166
11.503999999999905,-2678,-2293,5642,666,757,641,46,-134,172
11.515999999999849,-3242,-2519,6428,443,653,797,54,-132,158
11.538000000000011,-3082,-2871,7004,368,346,989,60,-124,155
11.549999999999955,-2272,-2889,6804,251,231,1040,61,-122,154
11.571999999999889,-2270,-3535,7358,213,326,1000,52,-132,158
11.593999999999824,-2112,-3319,6680,218,388,930,55,-121,150
11.605999999999995,-1722,-2947,5804,94,445,845,58,-126,143
11.627999999999929,-1844,-2831,5682,-106,387,738,42,-135,137
11.639999999999873,-2012,-2861,6056,-266,309,666,47,-132,135
11.662000000000035,-2628,-3355,6648,-343,162,636,54,-127,125
11.673999999999978,-2958,-3295,6176,-333,-6,721,44,-127,135
11.695999999999913,-2346,-2987,4882,-505,-148,801,38,-144,129
11.707999999999856,-2410,-3417,5016,-767,-209,873,35,-155,120
11.730000000000018,-924,-3869,2064,-1472,-595,746,35,-135,125
11.751999999999953,-792,-3647,4892,-1939,-480,518,32,-160,108
11.763999999999896,-2264,-139,11916,-1586,-712,370,21,-154,105
11.78599999999983,1084,-1025,9226,-1552,-710,-165,32,-160,108
11.798000000000002,1050,-2259,11038,-1294,-595,-554,27,-168,103
11.819999999999936,-1244,-2007,9346,-1041,-378,-714,19,-156,83
11.83199999999988,-3728,-2839,8846,-964,-135,-608,7,-167,76
11.853999999999814,-3488,-2715,8526,-873,-119,-392,21,-174,86
11.875999999999976,-2500,-2217,8330,-772,-157,-338,12,-174,83
11.88799999999992,-2466,-2341,8166,-693,-112,-335,0,-169,57
11.909999999999854,-2848,-2307,7648,-646,-123,-317,-1,-158,65
11.922000000000025,-4616,-3947,10844,-482,-428,-235,3,-175,65
11.94399999999996,-2844,-1545,6450,-333,-520,-207,10,-170,70
11.955999999999904,-2446,-2623,7988,-367,-648,-252,-9,-169,59
11.977999999999838,-2426,-2251,7538,-307,-699,-220,9,-172,57
11.990290999999843,-2444,-2591,7814,-356,-784,-233,-7,-172,57
12.011999999999944,-1954,-2447,7986,-360,-768,-209,-12,-174,52
12.033999999999878,-1726,-2657,8022,-318,-644,-192,-16,-164,47
12.045999999999822,-1734,-2631,7994,-289,-556,-160,-16,-164,47
12.067999999999984,-1754,-2817,8114,-237,-528,-149,-18,-175,49
12.079999999999927,-1692,-2643,7836,-154,-419,-114,-18,-183,41
12.101999999999862,-1594,-2541,7640,-145,-345,-83,-15,-180,37
12.114000000000033,-1722,-2801,8140,-86,-304,-80,-19,-177,45
12.135999999999967,-1758,-2967,8092,-76,-315,-76,-15,-175,46
12.157999999999902,-1446,-2625,7818,-50,-298,-69,-24,-172,35
12.169999999999845,-1296,-2577,7758,-30,-233,-48,-18,-163,53
12.192000000000007,-1452,-2553,7596,-27,-187,-29,-23,-175,53
12.20399999999995,-1518,-2627,7674,-12,-180,-33,-26,-174,50
12.220998000000009,-1412,-2555,7682,2,-172,-43,-31,-169,43
12.242999999999938,-1438,-2607,7662,9,-170,-47,-33,-174,43
12.254999999999882,-1414,-2495,7686,10,-153,-56,-29,-174,43
12.276999999999816,-1270,-2523,7678,12,-149,-65,-18,-160,44
12.298999999999978,-1240,-2579,7736,11,-144,-74,-20,-173,32
12.310999999999922,-1148,-2525,7672,21,-148,-70,-30,-170,49
12.332999999999856,-1136,-2529,7660,19,-123,-72,-26,-174,38
12.345000000000027,-1168,-2505,7624,13,-96,-62,-29,-172,43
12.366999999999962,-1106,-2473,7692,11,-90,-63,-33,-174,38
12.378999999999905,-1218,-2653,7688,-10,-46,-50,-36,-172,38
12.40099999999984,-1084,-2467,7442,17,-24,-40,-36,-174,50
12.423000000000002,-1358,-3045,8458,-23,-37,-40,-36,-167,33
12.434999999999945,-1244,-2529,7606,51,-60,-46,-41,-169,40
12.45699999999988,-1036,-2605,7750,2,-30,-47,-41,-177,33
12.468999999999824,-1182,-2505,7666,0,-18,-38,-26,-167,50
12.490999999999985,-1152,-2497,7712,4,-22,-44,-26,-172,45
12.502999999999929,-1086,-2539,7646,0,-15,-37,-38,-164,43
12.524999999999864,-1126,-2511,7662,-12,9,-27,-27,-168,49
12.547000000000025,-1114,-2551,7678,-37,21,-26,-24,-174,45
12.558999999999969,-1256,-2563,7688,-42,20,-25,-29,-167,45
12.580999999999904,-1212,-2495,7682,-38,7,-36,-30,-178,46
12.592999999999847,-1212,-2555,7702,-49,-11,-55,-37,-183,39
12.615000000000009,-1116,-2513,7726,-65,-8,-59,-30,-170,46
12.626999999999953,-1108,-2583,7780,-77,13,-59,-32,-165,39
12.648999999999887,-946,-2505,7608,-95,56,-57,-32,-168,37
12.66099999999983,-1474,-2677,8146,-177,113,-47,-36,-182,35
12.682999999999993,-1474,-2315,7418,-231,103,-118,-36,-167,47
12.704999999999927,-1334,-2599,8558,-308,28,-209,-35,-173,53
12.71699999999987,-1368,-2167,7680,-479,-31,-321,-33,-172,33
12.739000000000033,-1288,-2465,7750,-564,-51,-430,-43,-179,40
12.750999999999976,-1252,-2365,6590,-750,-143,-674,-33,-179,33
12.77299999999991,-546,-2373,8288,-832,-9,-790,-37,-165,32
12.784999999999854,-1150,-2983,7390,-1011,-90,-969,-47,-170,37
12.807000000000016,-1000,-3761,8034,-1187,-274,-948,-43,-162,33
12.82899999999995,-1060,-3165,8834,-1357,-902,-787,-54,-183,20
12.840999999999894,-1054,-3897,7836,-1784,-1144,-873,-54,-175,17
12.862999999999829,-1134,-3715,8114,-1835,-1134,-823,-54,-175,13
12.875,-1566,-4343,8258,-1931,-1253,-753,-56,-188,1
12.896999999999935,-2390,-2465,10344,-1798,-1259,-545,-67,-187,0
12.908999999999878,-6052,-387,9622,-1515,-1270,-73,-54,-188,-3
12.930999999999813,-6104,-1353,11172,-825,-438,521,-67,-184,-9
12.952999999999975,-4824,395,7744,-494,-313,1042,-66,-198,-25
12.964999999999918,-3114,133,8338,-334,-152,1266,-89,-199,-35
12.986999999999853,-2658,125,9080,14,-58,1353,-83,-216,-34
12.999000000000024,-1872,415,8834,372,32,1337,-72,-215,-35
13.020999999999958,-2094,45,8944,722,116,1311,-82,-245,-47
13.032999999999902,-2310,-471,9110,1047,111,1338,-78,-261,-44
13.054999999999836,-2470,-1161,9130,1372,123,1401,-83,-269,-53
13.076999999999998,-2380,-1813,9154,1636,167,1450,-89,-291,-50
13.088999999999942,-2270,-2143,8864,1797,217,1445,-93,-332,-37
13.110999999999876,-2294,-2917,9136,1890,236,1399,-82,-356,-26
13.12299999999982,-2034,-3767,9570,2011,329,1300,-69,-373,-8
13.144999999999982,-1794,-3675,7924,1931,331,1148,-50,-389,19
13.156999999999925,-3016,-3997,8616,1780,351,1082,-47,-408,46
13.17899999999986,-2812,-4461,9234,1752,437,1149,-24,-425,66
13.201000000000022,-2492,-3963,8920,1751,583,1188,-14,-425,86
13.212999999999965,-2400,-3859,9156,1660,652,1158,-6,-429,106
13.2349999999999,-2328,-4087,9796,1767,722,1158,12,-422,153
13.246999999999844,-1592,-3445,7990,1784,776,1114,39,-413,168
13.269000000000005,-850,-3607,6200,1458,678,964,49,-406,194
13.280999999999949,-58,-4757,9346,1316,656,819,56,-403,213
13.302999999999884,-612,-3597,8824,1483,724,695,85,-393,247
13.314999999999827,-340,-2713,7392,1459,626,471,92,-369,246
13.336999999999989,-578,-2745,7464,1305,699,254,105,-368,259
13.358999999999924,-720,-3165,7642,1207,741,110,121,-351,270
13.370999999999867,-1048,-2911,7624,1161,673,-38,139,-337,283
13.393000000000029,-1172,-2497,6878,1154,666,-146,140,-331,298
13.404999999999973,-1860,-1857,5966,988,734,-189,141,-312,295
13.426999999999907,-2814,-2477,6612,874,576,-128,157,-293,294
13.43899999999985,-2878,-2743,6660,885,444,-6,163,-289,309
13.461000000000013,-2768,-2021,5792,705,567,91,170,-287,311
13.472999999999956,-3178,-1939,6126,499,372,233,178,-279,319
13.49499999999989,-3008,-2101,6240,358,319,416,180,-261,326
13.516999999999825,-2814,-1753,5656,131,305,535,196,-260,317
13.528999999999996,-2296,-1743,5950,18,162,559,191,-260,315
13.55099999999993,-2098,-1997,6236,-74,150,547,196,-255,315
13.562999999999874,-2200,-2137,5804,-189,147,518,211,-244,321
13.584999999999809,-2120,-2389,5624,-291,45,458,207,-249,328
13.59699999999998,-2326,-2553,5032,-441,-44,393,217,-240,322
13.618999999999915,-2764,-2817,5078,-648,-129,403,214,-249,326
13.640999999999849,-1482,-3467,2002,-877,-71,381,214,-249,331
13.65300000000002,-1444,-2117,3160,-1901,-145,-104,220,-255,320
13.674999999999955,-3108,1115,12604,-1620,-197,-118,240,-261,314
13.686999999999898,1162,195,7160,-1817,-180,-591,228,-279,319
13.708999999999833,-1526,-3323,13510,-1555,375,-714,219,-289,319
13.721000000000004,-3424,-2479,9886,-1249,414,-727,227,-308,308
13.742999999999938,-5064,-2375,8576,-1104,396,-474,231,-325,311
13.754999999999882,-4360,-2087,8784,-1035,480,-184,232,-326,301
13.776999999999816,-2796,-1917,8668,-883,666,-46,228,-340,288
13.798999999999978,-2842,-1427,8082,-785,798,-69,232,-346,282
13.810999999999922,-3700,-1641,7622,-675,794,-120,237,-349,289
13.832999999999856,-4534,-1807,7316,-661,858,-40,244,-354,282
13.845000000000027,-4022,-1643,7286,-558,755,-54,244,-369,267
13.866999999999962,-4670,-1581,6646,-514,605,-112,261,-351,270
13.878999999999905,-5044,-1963,6906,-514,422,-69,250,-368,256
13.90099999999984,-4440,-1749,6638,-365,187,-44,262,-375,264
13.923000000000002,-4372,-2123,7498,-294,132,-49,267,-375,252
13.934999999999945,-4320,-1785,6936,-214,89,-20,262,-375,237
13.95699999999988,-4450,-2039,7172,-169,57,-24,265,-386,247
13.968999999999824,-4104,-1823,6990,-132,56,-11,254,-379,239
13.990999999999985,-4278,-1917,7058,-118,73,-9,262,-383,242
14.002999999999929,-4188,-1815,6816,-101,87,-5,260,-383,245
14.024999999999864,-4366,-1813,6824,-80,53,-18,266,-377,236
14.047000000000025,-4106,-1747,6856,-55,38,-18,261,-374,239
14.058999999999969,-4192,-1843,6754,-45,45,-22,266,-377,251
14.080999999999904,-4192,-1867,6956,-48,54,-24,263,-382,246
14.092999999999847,-4214,-1687,6596,-51,33,-36,274,-388,242
14.115000000000009,-4174,-1679,6538,-56,-33,-59,261,-377,243
14.126999999999953,-4104,-1667,6418,-71,-76,-79,259,-382,239
14.148999999999887,-4234,-1725,6436,-90,-159,-102,271,-389,243
14.16099999999983,-4096,-1703,6464,-100,-248,-136,268,-389,246
14.182999999999993,-4040,-1563,6262,-112,-324,-159,263,-389,246
14.204999999999927,-4174,-1839,6624,-139,-431,-202,266,-382,246
14.221997999999985,-3942,-1665,6390,-128,-543,-242,261,-394,253
14.233999999999924,-3956,-1917,6640,-161,-634,-273,254,-397,248
14.255999999999858,-4056,-2175,7098,-163,-624,-264,253,-393,264
14.268000000000029,-3592,-2053,7084,-170,-617,-242,239,-402,248
14.289999999999964,-3526,-2119,7102,-152,-546,-229,227,-402,251
14.302284999999983,-3404,-2135,7228,-146,-499,-212,239,-412,248
14.323999999999842,-3518,-2119,7262,-158,-487,-228,226,-408,266
14.346000000000004,-3478,-2113,6946,-185,-496,-254,233,-403,259
14.357999999999947,-3134,-2313,7288,-207,-463,-199,225,-392,265
14.379999999999882,-3140,-2439,7402,-201,-435,-179,208,-420,262
14.391999999999825,-3056,-2483,7434,-194,-380,-155,214,-411,261
14.413999999999987,-3048,-2375,7292,-173,-349,-131,217,-417,265
14.42599999999993,-3098,-2429,7388,-164,-345,-134,210,-410,262
14.447999999999865,-3034,-2407,7232,-139,-321,-127,211,-421,271
14.470000000000027,-3024,-2343,7164,-138,-306,-129,205,-415,267
14.481999999999971,-2972,-2427,7300,-145,-330,-146,205,-425,260
14.503999999999905,-2858,-2453,7240,-155,-320,-151,208,-427,282
14.515999999999849,-2808,-2507,7244,-161,-331,-152,192,-416,273
14.538000000000011,-2794,-2567,7228,-173,-332,-156,198,-422,277
14.549999999999955,-2826,-2517,7154,-179,-390,-157,196,-427,274
14.571999999999889,-2802,-2709,7960,-180,-457,-172,192,-431,271
14.593999999999824,-2644,-2647,7390,-214,-335,-175,190,-436,276
14.605999999999995,-2590,-2759,7584,-192,-307,-164,181,-442,270
14.627999999999929,-2486,-2621,7484,-186,-195,-148,185,-436,273
14.639999999999873,-2502,-2525,7348,-241,-146,-164,180,-431,276
14.662000000000035,-2512,-2465,7326,-342,-121,-220,173,-444,278
14.673999999999978,-2396,-2559,7392,-472,-67,-265,171,-445,262
14.695999999999913,-2318,-2743,7530,-598,5,-290,170,-441,261
14.707999999999856,-2316,-2717,7502,-724,105,-300,164,-455,260
14.730000000000018,-2880,-2799,7136,-846,243,-403,159,-448,258
14.751999999999953,-2776,-2963,7252,-1002,304,-516,161,-454,247
14.763999999999896,-2816,-3059,7124,-1122,348,-629,153,-456,237
14.78599999999983,-2586,-3303,7000,-1266,375,-768,158,-477,235
14.798000000000002,-2498,-3459,7098,-1419,378,-866,159,-491,219
14.819999999999936,-2560,-3849,7524,-1535,471,-942,147,-496,212
14.83199999999988,-2722,-4289,7402,-1612,452,-1054,146,-494,194
14.853999999999814,-3062,-4463,7530,-1605,269,-1045,133,-513,179
14.875999999999976,-5600,-2359,9682,-1223,-262,-910,131,-537,158
14.88799999999992,-4638,-103,8726,-803,-741,-658,124,-545,151
14.909999999999854,-5376,-487,8936,-497,-638,-389,111,-531,153
14.922000000000025,-4338,489,8886,-34,-509,-144,113,-531,143
14.94399999999996,-3752,409,8478,257,-388,-69,111,-546,153
14.955999999999904,-3918,221,8306,586,-298,36,108,-549,143
14.977999999999838,-4100,13,8192,856,-202,175,104,-534,150
15.0,-4202,-157,7622,1058,-145,367,116,-529,169
15.011999999999944,-4462,-709,8034,1201,-95,571,122,-522,168
15.033999999999878,-4776,-1251,8092,1384,-29,823,115,-530,178
15.045999999999822,-4756,-1695,7974,1479,7,1055,118,-521,184
15.067999999999984,-4556,-2001,7828,1530,92,1252,150,-491,205
15.079999999999927,-4198,-2447,7902,1532,123,1382,161,-497,206
15.101999999999862,-3682,-2677,7824,1511,116,1472,186,-496,205
15.114000000000033,-3246,-2681,7768,1479,50,1439,186,-488,224
15.135999999999967,-2728,-3099,7750,1386,-3,1324,239,-480,227
15.157999999999902,-2804,-3151,8346,1235,-213,1136,248,-474,228
15.169999999999845,-2828,-3985,10914,1329,-18,1072,278,-468,229
15.192000000000007,-2918,-3641,8930,1471,102,1013,307,-463,251
15.20399999999995,-1706,-3129,7734,1380,64,835,352,-459,252
15.225999999999885,-1496,-3645,5758,1102,101,568,379,-436,254
15.24799999999982,-1274,-5151,8922,970,117,322,411,-417,255
15.259999999999991,-1884,-4319,9500,1235,451,230,441,-403,264
15.281999999999925,-1708,-3471,7844,1325,554,32,483,-360,271
15.293999999999869,-1774,-3619,7950,1303,622,-171,498,-336,272
15.316000000000031,-2114,-3045,6826,1289,713,-258,521,-315,290
15.327999999999975,-2202,-2739,6322,1150,761,-315,542,-278,296
15.349999999999909,-2894,-2699,6788,1027,689,-316,554,-215,289
15.361999999999853,-3070,-2573,7030,981,654,-240,538,-188,292
15.384000000000015,-2962,-2301,6720,922,583,-166,552,-169,286
15.395999999999958,-2950,-1899,6342,831,551,-103,538,-140,292
15.417999999999893,-3358,-1655,6570,722,471,-16,524,-97,283
15.439999999999827,-3452,-1505,6796,643,394,112,523,-70,267
15.451999999999998,-3316,-1527,7008,588,415,213,498,-53,255
15.473999999999933,-3552,-1635,6938,569,405,294,486,-25,255
15.485999999999876,-3216,-1641,6094,505,324,345,461,-11,252
15.50799999999981,-2960,-1585,5784,376,271,364,446,11,242
15.519999999999982,-2830,-1843,6008,244,189,327,431,17,236
15.541999999999916,-2508,-1727,5790,137,122,254,408,21,230
15.56399999999985,-2562,-2169,6020,55,118,164,391,34,223
15.576000000000022,-2566,-2351,5612,-21,79,94,380,32,210
15.597999999999956,-2716,-2353,5032,-171,24,36,369,46,209
15.6099999999999,-3010,-2487,5162,-346,-46,13,357,46,221
15.631999999999834,-3492,-2737,5470,-475,-130,46,347,39,209
15.644000000000005,-3490,-2513,5302,-601,-200,128,342,59,202
15.66599999999994,424,-3117,348,-1588,-1095,-254,340,54,202
15.687999999999874,-4576,371,12146,-1611,-943,-311,334,37,207
15.699999999999818,262,389,6368,-1684,-721,-578,312,22,219
15.72199999999998,-510,-2199,11972,-1701,-766,-936,305,15,219
15.733999999999924,-2090,-2759,9382,-1418,-527,-952,299,8,223
15.755999999999858,-4384,-2567,8722,-1347,-377,-729,297,-2,236
15.768000000000029,-4370,-2775,8902,-1321,-167,-469,301,-13,242
15.789999999999964,-3272,-3611,10284,-1121,136,-246,306,-13,240
15.801999999999907,-2292,-2409,8796,-865,323,-183,291,-24,245
15.823999999999842,-3402,-2425,7932,-738,390,-213,290,-17,229
15.846000000000004,-5380,-3575,9140,-560,28,-146,295,-30,227
15.857999999999947,-3834,-2231,7578,-361,37,1,300,-30,224
15.879999999999882,-3310,-2121,7460,-283,29,-38,301,-46,233
15.891999999999825,-3578,-2457,7890,-221,18,-12,296,-39,228
15.913999999999987,-3430,-1997,7208,-155,32,-9,301,-34,247
15.92599999999993,-3566,-1959,7066,-154,-56,-43,300,-40,236
15.947999999999865,-3460,-2033,7268,-110,-122,-68,302,-25,234
15.970000000000027,-3564,-2167,7002,-104,-174,-93,301,-46,233
15.981999999999971,-3084,-2089,7248,-102,-212,-87,294,-39,237
16.003999999999905,-3168,-1961,7056,-144,-257,-84,296,-46,233
16.01599999999985,-3128,-2307,7530,-129,-251,-93,296,-36,240
16.03800000000001,-2980,-2131,7228,-96,-256,-90,303,-41,237
16.049999999999955,-3048,-1959,6866,-128,-299,-99,291,-49,249
16.07199999999989,-2968,-2153,7126,-135,-335,-102,289,-44,252
16.093999999999824,-3090,-2043,7078,-167,-423,-132,296,-46,242
16.105999999999995,-2938,-2249,7460,-164,-430,-144,299,-59,247
16.12799999999993,-2750,-2459,7746,-141,-329,-133,276,-53,255
16.139999999999873,-2720,-2449,7676,-104,-216,-106,286,-39,242
16.162000000000035,-2738,-2459,7548,-89,-180,-84,291,-46,254
16.173999999999978,-2728,-2285,7338,-81,-166,-75,272,-49,249
16.195999999999913,-2648,-2371,7412,-87,-130,-68,279,-46,261
16.207999999999856,-2754,-2377,7310,-79,-118,-55,280,-50,260
16.2349999999999,-2720,-2223,7148,-86,-153,-57,279,-69,268
16.246999999999844,-2718,-2411,7344,-92,-185,-72,274,-62,256
16.269000000000005,-2692,-2397,7418,-105,-161,-73,276,-58,258
16.28099999999995,-2482,-1977,6688,-104,-119,-63,280,-65,258
16.302999999999884,-2634,-2663,7454,-132,-83,-59,271,-58,260
16.314999999999827,-2618,-2385,7120,-83,-82,-50,272,-59,259
16.33699999999999,-2400,-2253,7224,-97,-74,-62,283,-55,258
16.348999999999933,-2532,-2517,7358,-100,-52,-59,273,-58,258
16.370999999999867,-2566,-2429,7338,-99,-63,-59,277,-72,261
16.39300000000003,-2542,-2559,7386,-84,-45,-57,271,-68,255
16.404999999999973,-2546,-2581,7584,-64,-1,-47,277,-67,273
16.426999999999907,-2502,-2477,7470,-44,72,-37,284,-72,261
16.43899999999985,-2474,-2463,7420,-42,154,-27,270,-69,264
16.461000000000013,-2620,-2337,7052,-76,116,-44,278,-63,262
16.472999999999956,-2596,-2517,7144,-117,43,-66,277,-67,256
16.49499999999989,-2626,-2591,7172,-125,-13,-71,272,-77,252
16.516999999999825,-2586,-2675,7378,-129,-31,-73,279,-67,278
16.528999999999996,-2630,-2665,7270,-125,-33,-66,279,-67,264
16.55099999999993,-2620,-2631,7298,-129,-49,-66,272,-67,264
16.562999999999874,-2624,-2615,7232,-140,-59,-75,271,-70,260
16.58499999999981,-2606,-2521,7194,-189,-69,-104,271,-75,265
16.59699999999998,-2546,-2479,7326,-278,-72,-140,270,-69,264
16.618999999999915,-2514,-2515,7246,-373,-56,-187,273,-81,274
16.64099999999985,-2458,-2581,7462,-504,7,-219,270,-79,259
16.65300000000002,-2440,-2527,7188,-652,91,-236,256,-73,258
16.674999999999955,-2400,-2539,7402,-832,164,-299,270,-74,266
16.686999999999898,-2838,-2735,7188,-974,361,-387,273,-88,267
16.708999999999833,-2530,-3071,7310,-1156,426,-504,276,-96,253
16.721000000000004,-2802,-3209,7312,-1333,442,-643,268,-101,258
16.742999999999938,-2886,-3349,7684,-1509,540,-792,262,-105,252
16.764999999999873,-2666,-3799,6510,-1667,647,-927,276,-134,251
16.776999999999816,-2696,-3863,6790,-1828,686,-1036,263,-136,243
16.798999999999978,-2836,-4177,6740,-1931,626,-1129,266,-146,236
16.810999999999922,-3084,-4929,7690,-1969,480,-1179,259,-169,231
16.832999999999856,-4918,-2645,11184,-1595,224,-1078,268,-189,222
16.845000000000027,-4500,-237,9976,-963,-528,-857,259,-197,215
16.866999999999962,-3392,-441,9128,-551,-578,-692,257,-211,199
16.878999999999905,-3832,257,9240,-21,-493,-551,242,-210,210
16.90099999999984,-3614,209,8706,308,-452,-481,208,-225,229
16.923000000000002,-4408,169,7992,689,-327,-281,196,-215,219
16.934999999999945,-4692,-23,7352,903,-370,-28,175,-208,213
16.95699999999988,-5098,-367,7348,1123,-316,312,162,-205,207
16.968999999999824,-4920,-781,7570,1295,-320,653,122,-196,206
16.990999999999985,-4516,-1229,7628,1457,-306,895,107,-206,199
17.00299999999993,-4038,-1763,7874,1592,-306,1023,104,-197,198
17.024999999999864,-3962,-2515,8450,1732,-229,1101,90,-191,197
17.03729099999987,-3630,-3059,8046,1818,-164,1153,84,-205,172
17.05899999999997,-3360,-3611,8024,1833,-133,1109,71,-193,175
17.080999999999904,-3256,-3891,8030,1842,-135,1017,75,-210,172
17.092999999999847,-2782,-3587,7384,1755,-206,889,69,-211,163
17.11500000000001,-2346,-3389,6374,1570,-353,640,67,-199,164
17.126999999999953,-3212,-4925,11270,1430,-194,423,77,-192,145
17.148999999999887,-5024,-5725,11582,1897,668,662,78,-191,163
17.16099999999983,-4374,-4103,6728,1922,669,845,89,-202,153
17.182999999999993,-3860,-4421,6044,1578,708,894,95,-186,147
17.204999999999927,-3306,-3893,6812,1431,680,962,99,-174,153
17.21699999999987,-2636,-4117,7756,1274,699,955,96,-174,148
17.239000000000033,-2386,-4203,7948,1225,776,896,102,-165,151
17.250999999999976,-2202,-3963,7572,1252,714,832,108,-167,150
17.27299999999991,-1464,-3221,6306,1140,683,731,111,-151,148
17.284999999999854,-1288,-3057,6354,988,643,569,111,-149,143
17.307000000000016,-1250,-2745,6554,878,522,355,112,-153,135
17.32899999999995,-1968,-2879,7664,856,474,183,121,-149,131
17.340999999999894,-2478,-2421,7164,959,418,148,108,-139,131
17.36299999999983,-2456,-1375,6108,830,293,108,115,-132,132
17.375,-3132,-1249,6020,761,385,137,106,-139,129
17.396999999999935,-3624,-1245,6292,618,306,211,117,-137,127
17.408999999999878,-3794,-1221,6524,501,255,362,111,-134,129
17.430999999999813,-3744,-995,6042,407,243,530,112,-137,125
17.442999999999984,-3452,-827,5948,228,208,652,119,-135,123
17.464999999999918,-3428,-801,5948,30,171,737,124,-140,125
17.486999999999853,-3404,-1441,6518,-37,89,757,113,-144,112
17.499000000000024,-3312,-1531,6396,-126,5,703,124,-145,118
17.520999999999958,-3642,-1983,6458,-139,53,668,107,-145,118
17.5329999999999,-3752,-2149,5446,-212,69,669,121,-146,126
17.554999999999836,-3934,-2617,5080,-402,58,661,117,-140,118
17.567000000000007,-4300,-3365,4800,-548,99,750,130,-139,119
17.588999999999942,-4184,-3763,3332,-794,37,863,117,-127,115
17.610999999999876,-1624,-4273,-3718,-2083,-119,600,124,-140,115
17.62299999999982,-5054,-39,10062,-2399,-658,574,122,-143,111
17.644999999999982,438,627,8772,-2388,-481,322,116,-154,109
17.656999999999925,1554,-2341,11818,-2292,-357,-119,127,-155,101
17.67899999999986,2572,-2603,12174,-1831,-26,-607,136,-158,92
17.69100000000003,-1294,-1961,9118,-1474,-32,-1041,129,-168,103
17.712999999999965,-4888,-1183,5670,-1574,-91,-979,121,-184,93
17.7349999999999,-6246,-4447,9688,-1609,179,-623,119,-178,92
17.746999999999844,-3308,-3269,9732,-1246,184,-457,108,-199,83
17.769000000000005,-3560,-3105,8794,-959,195,-500,123,-205,78
17.78099999999995,-7026,-5273,10144,-588,37,-302,113,-202,81
17.802999999999884,-3100,-2509,7864,-401,-170,-90,100,-201,70
17.814999999999827,-3606,-2699,7806,-293,-106,-75,112,-208,75
17.83699999999999,-3428,-2591,7686,-228,-74,-12,107,-208,77
17.848999999999933,-3904,-2401,7328,-184,-95,-23,110,-208,75
17.870999999999867,-3524,-2119,7070,-157,-116,-17,105,-211,80
17.89300000000003,-3340,-2077,6996,-142,-153,-39,115,-206,72
17.904999999999973,-3326,-2189,7020,-127,-221,-98,105,-208,70
17.926999999999907,-3308,-2123,6980,-141,-198,-69,96,-207,71
17.93899999999985,-3430,-2165,6868,-154,-284,-87,107,-208,77
17.961000000000013,-3262,-2321,7244,-144,-234,-85,106,-212,78
17.972999999999956,-3104,-2525,7546,-135,-165,-65,102,-203,87
17.99499999999989,-3272,-2399,7260,-128,-182,-50,111,-210,86
18.016999999999825,-3200,-2479,7442,-119,-141,-54,108,-202,81
18.028999999999996,-3194,-2301,7008,-122,-153,-70,101,-205,66
18.05099999999993,-3078,-2299,7078,-129,-160,-74,107,-206,72
18.062999999999874,-3032,-2399,7194,-125,-112,-62,99,-202,76
18.08499999999981,-2986,-2519,7412,-111,-64,-53,102,-206,75
18.09699999999998,-3020,-2597,7454,-68,62,-23,100,-213,82
18.118999999999915,-3074,-2513,7170,-60,70,-14,110,-216,65
18.14099999999985,-3102,-2381,7176,-58,75,-7,98,-211,82
18.15300000000002,-3034,-2481,7288,-52,119,1,100,-211,77
18.174999999999955,-3208,-2471,7044,-52,77,-14,90,-213,75
18.186999999999898,-3146,-2403,7056,-57,42,-24,98,-206,80
18.208999999999833,-3180,-2383,6962,-69,0,-50,99,-202,78
18.22599799999989,-3162,-2285,6818,-80,-69,-71,100,-203,75
18.23799999999983,-3132,-2471,7078,-107,-153,-101,95,-216,75
18.25999999999999,-3080,-2449,7068,-109,-161,-107,92,-210,69
18.281999999999925,-3008,-2761,7412,-109,-120,-104,95,-218,82
18.29399999999987,-3026,-2663,7288,-100,-105,-85,101,-217,74
18.31600000000003,-2902,-2581,7198,-99,-83,-75,94,-217,81
18.327999999999975,-3018,-2543,7096,-87,-62,-65,87,-217,71
18.34999999999991,-3020,-2531,7050,-98,-63,-64,94,-220,71
18.361999999999853,-2992,-2523,7092,-101,-98,-80,98,-221,70
18.384000000000015,-2980,-2615,7098,-103,-96,-90,95,-224,77
18.395999999999958,-2998,-2645,7156,-103,-114,-92,98,-208,87
18.417999999999893,-2918,-2693,7140,-96,-110,-81,105,-213,77
18.439999999999827,-2896,-2657,7080,-94,-136,-79,88,-208,75
18.451999999999998,-2884,-2661,7132,-96,-139,-76,99,-217,81
18.473999999999933,-2898,-2615,6982,-111,-184,-90,95,-218,70
18.485999999999876,-2832,-2681,6988,-110,-250,-102,94,-217,74
18.50799999999981,-2764,-2723,7044,-104,-329,-110,89,-222,78
18.519999999999982,-2746,-2687,7064,-90,-394,-114,101,-217,76
18.541999999999916,-2692,-2845,7290,-85,-436,-129,92,-220,74
18.56399999999985,-2594,-2923,7428,-71,-343,-118,94,-220,71
18.576000000000022,-2676,-2857,7310,-66,-264,-100,89,-220,71
18.597999999999956,-2510,-2757,7340,-67,-208,-88,79,-215,83
18.6099999999999,-2512,-2735,7240,-90,-200,-99,83,-208,77
18.631999999999834,-2448,-2785,7376,-140,-164,-113,89,-235,71
18.644000000000005,-2424,-2811,7354,-216,-84,-120,79,-220,66
18.66599999999994,-2394,-2775,7378,-316,-19,-131,81,-226,75
18.687999999999874,-2324,-2733,7246,-439,30,-146,85,-221,77
18.699999999999818,-2398,-2603,7260,-614,101,-178,73,-226,72
18.72199999999998,-2434,-2547,7332,-837,174,-229,89,-230,76
18.733999999999924,-2692,-2761,7322,-988,242,-330,88,-218,60
18.755999999999858,-2134,-3427,7216,-1133,183,-379,78,-224,68
18.76800000000003,-2760,-3517,6798,-1329,-97,-528,77,-230,52
18.789999999999964,-3138,-3753,7258,-1534,-285,-693,78,-231,46
18.801999999999907,-3144,-3825,7574,-1701,-348,-880,75,-237,52
18.82399999999984,-3126,-4043,7260,-1840,-544,-1041,73,-239,39
18.846000000000004,-3298,-4769,6806,-1886,-1216,-1011,79,-260,43
18.857999999999947,-2262,-3491,10536,-1742,-1875,-794,67,-245,33
18.87999999999988,-2196,-71,11426,-1155,-1718,-539,54,-254,25
18.891999999999825,-3924,625,10574,-749,-1964,-224,56,-254,32
18.913999999999987,-4426,241,11056,-136,-1287,180,42,-269,29
18.92599999999993,-4952,819,7982,177,-1284,633,41,-255,19
18.947999999999865,-4900,133,8326,356,-1216,1068,43,-263,21
18.970000000000027,-5092,47,7876,633,-1053,1463,43,-265,28
18.98199999999997,-5118,-439,8098,825,-942,1792,56,-259,13
19.003999999999905,-5356,-995,8144,1049,-917,2089,60,-258,31
19.01599999999985,-5276,-1485,7790,1219,-904,2318,65,-253,31
19.03800000000001,-5216,-2253,7836,1332,-872,2493,55,-243,33
19.049999999999955,-5002,-2937,7730,1361,-846,2558,76,-246,27
19.07199999999989,-4750,-3407,7634,1387,-773,2543,66,-241,34
19.093999999999824,-4742,-3681,7594,1351,-751,2456,87,-248,31
19.105999999999995,-5050,-4099,7936,1316,-661,2354,89,-225,38
19.12799999999993,-4902,-4069,7418,1271,-527,2269,100,-236,41
19.139999999999873,-4814,-3793,6856,1121,-426,2179,98,-221,44
19.162000000000035,-4422,-3445,6406,871,-384,2052,122,-224,51
19.173999999999978,-5026,-4595,8528,785,-146,1933,119,-218,56
19.195999999999913,-5038,-4799,9858,885,68,1876,121,-222,62
19.207999999999856,-5062,-4619,8572,1023,263,1892,130,-220,66
19.230000000000018,-4550,-4315,6570,1034,443,1849,147,-194,66
19.251999999999953,-3970,-4401,9830,1137,493,1887,155,-199,81
19.263999999999896,-3500,-4343,7798,1199,531,1885,161,-196,75
19.28599999999983,-1838,-3823,8012,1235,634,1737,170,-186,77
19.298000000000002,-2070,-4085,7808,1226,641,1506,185,-168,87
19.319999999999936,-2080,-4277,7688,1315,584,1261,170,-165,84
19.33199999999988,-1862,-4155,6872,1349,542,983,192,-160,87
19.353999999999814,-2026,-4201,6574,1239,667,714,199,-148,84
19.375999999999976,-3028,-4353,5710,1121,736,616,203,-136,86
19.38799999999992,-3410,-4041,4350,861,492,643,204,-120,96
19.409999999999854,-3728,-4353,4510,515,410,739,207,-122,92
19.422000000000025,-4006,-4603,5280,285,349,897,211,-117,92
19.44399999999996,-4036,-4113,4818,101,323,1063,227,-111,86
19.455999999999904,-4146,-3945,3950,-230,225,1222,226,-110,82
19.477999999999838,-4558,-4085,3824,-552,-7,1426,227,-108,76
19.5,-4484,-4669,4140,-880,-140,1709,220,-98,90
19.511999999999944,-4346,-5127,3664,-1247,-225,1995,230,-91,81
19.533999999999878,-3786,-5641,3652,-1646,-244,2295,232,-86,86
19.54599999999982,-2154,-5547,3958,-1967,-237,2457,243,-77,82
19.567999999999984,-2498,-1049,8566,-2365,-207,2256,227,-63,93
19.579999999999927,1266,981,8508,-2477,-510,1740,231,-69,89
19.60199999999986,2888,-1571,11078,-2473,-657,960,224,-72,84
19.614000000000033,3408,-3365,14068,-1907,-418,386,233,-72,89
19.635999999999967,3750,-1987,11870,-1377,-231,-324,231,-67,94
19.6579999999999,-1454,-2307,10014,-1060,79,-672,230,-73,100
19.669999999999845,-4412,-2195,7688,-1022,230,-488,232,-86,95
19.692000000000007,-2678,-2343,8886,-998,339,-277,222,-91,98
19.70399999999995,-2184,-2961,10328,-751,504,-357,231,-92,92
19.725999999999885,-3734,-2505,8250,-479,570,-279,233,-92,92
19.73799999999983,-4234,-2085,7210,-421,442,-186,238,-102,94
19.75999999999999,-3622,-2257,8168,-365,312,-138,232,-101,95
19.781999999999925,-3856,-2389,7816,-269,289,-85,233,-107,94
19.79399999999987,-3980,-2451,7684,-117,133,-9,227,-106,83
19.81600000000003,-2748,-1349,6806,-136,33,-27,242,-108,86
19.827999999999975,-3092,-1685,6584,-161,-36,-58,234,-116,81
19.84999999999991,-3136,-1455,6418,-240,-198,-92,231,-99,94
19.861999999999853,-3260,-2027,7448,-258,-309,-127,239,-108,88
19.884000000000015,-3292,-2125,7328,-261,-314,-102,231,-110,87
19.90599999999995,-3068,-1981,7222,-267,-352,-81,233,-110,80
19.917999999999893,-2812,-2065,7448,-280,-415,-77,232,-108,93
19.939999999999827,-3012,-2125,7478,-269,-476,-100,234,-108,83
19.951999999999998,-2934,-2207,7176,-258,-554,-110,225,-106,90
19.973999999999933,-2960,-2351,7726,-238,-630,-146,226,-110,89
19.985999999999876,-2730,-2475,7624,-204,-619,-132,225,-116,93
20.00799999999981,-2496,-2223,7580,-208,-613,-137,231,-115,106
20.019999999999982,-2452,-2405,7656,-196,-592,-146,221,-110,106
20.041999999999916,-2406,-2269,7612,-168,-600,-174,236,-117,113
20.06399999999985,-2702,-2389,7204,-163,-646,-198,231,-122,94
20.076000000000022,-2050,-2627,7960,-139,-603,-168,208,-121,117
20.097999999999956,-1864,-2685,8132,-104,-434,-130,211,-130,103
20.1099999999999,-1786,-2457,7760,-52,-270,-82,208,-129,121
20.131999999999834,-1834,-2433,7702,-43,-177,-60,217,-113,121
20.144000000000005,-1926,-2405,7648,-28,-131,-51,209,-140,127
20.16599999999994,-1936,-2523,7704,-14,-109,-41,217,-116,119
20.187999999999874,-1880,-2411,7622,3,-107,-45,204,-130,118
20.199999999999818,-1892,-2437,7650,23,-109,-57,210,-134,119
20.226997999999867,-2016,-2375,7478,-3,-70,-70,209,-120,106
20.239000000000033,-1826,-2343,7698,-21,-97,-71,211,-120,125
20.250999999999976,-1752,-2501,7932,38,-139,-73,205,-129,109
20.27299999999991,-2088,-2593,7724,40,-89,-57,205,-124,119
20.284999999999854,-1742,-2383,7746,26,-108,-69,213,-118,124
20.307000000000016,-1638,-2551,7800,20,-98,-54,203,-116,112
20.32899999999995,-1784,-2307,7484,13,-135,-58,207,-127,118
20.340999999999894,-1694,-2429,7712,13,-109,-41,207,-122,123
20.36299999999983,-1730,-2471,7676,26,-60,-24,215,-113,131
20.375,-1876,-2337,7550,12,-26,-7,207,-132,120
20.396999999999935,-1810,-2425,7594,4,-47,-23,209,-122,127
20.408999999999878,-1730,-2297,7692,0,-41,-31,204,-120,127
20.430999999999813,-1804,-2395,7612,2,-67,-36,205,-131,121
20.452999999999975,-1796,-2445,7676,6,-84,-38,204,-130,113
20.464999999999918,-1686,-2357,7650,13,-82,-37,204,-125,113
20.486999999999853,-1710,-2449,7690,11,-90,-47,202,-127,118
20.499000000000024,-1724,-2401,7744,4,-90,-57,204,-132,123
20.520999999999958,-1668,-2331,7712,-14,-88,-59,198,-126,124
20.5329999999999,-1764,-2343,7630,-43,-99,-77,193,-126,114
20.554999999999836,-1744,-2323,7630,-75,-120,-89,211,-115,111
20.567000000000007,-1718,-2339,7666,-98,-137,-121,196,-134,126
20.588999999999942,-1608,-2365,7678,-150,-136,-144,204,-117,127
20.610999999999876,-1496,-2263,7700,-213,-94,-156,205,-129,121
20.62299999999982,-1746,-2253,7712,-295,-36,-206,199,-120,120
20.644999999999982,-1734,-2153,7638,-362,-49,-275,192,-135,115
20.656999999999925,-2134,-2117,7490,-437,-97,-390,202,-127,120
20.67899999999986,-2214,-2265,7666,-552,-263,-507,192,-135,123
20.69100000000003,-1206,-2381,7824,-773,-272,-596,198,-144,126
20.712999999999965,-1466,-2551,7706,-1013,-452,-686,203,-144,124
20.7349999999999,-1236,-2661,7964,-1182,-547,-763,193,-154,121
20.746999999999844,-3314,-1907,9206,-1176,-489,-708,194,-158,120
20.769000000000005,-5726,-689,8604,-1171,-373,-299,193,-167,129
20.78099999999995,-5462,-771,9430,-1084,-267,238,194,-173,118
20.802999999999884,-3984,437,8288,-923,-141,628,182,-178,123
20.814999999999827,-3250,581,8310,-837,-147,867,188,-174,114
20.83699999999999,-2612,627,8714,-617,-266,1039,190,-175,113
20.84928500000001,-2044,481,9108,-413,-302,1095,185,-175,118
20.870999999999867,-2012,567,9272,-137,-284,1096,187,-160,120
20.89300000000003,-2194,285,9166,125,-260,1079,187,-170,130
20.904999999999973,-2330,217,8704,322,-210,1051,192,-150,115
20.926999999999907,-2738,-301,9048,515,-207,1045,203,-149,126
20.93899999999985,-2660,-469,8856,701,-155,1046,186,-134,133
20.961000000000013,-2948,-1091,8742,879,-107,1045,202,-110,135
20.972999999999956,-2784,-1379,8264,986,-75,1004,203,-106,136
20.99499999999989,-3024,-2021,8366,1070,-30,949,207,-99,118
21.016999999999825,-3294,-2235,7834,1060,38,923,209,-82,127
21.028999999999996,-3082,-2155,6588,969,79,909,202,-72,118
21.05099999999993,-3470,-2825,7096,834,-55,883,208,-65,124
21.062999999999874,-2396,-2579,7492,749,-290,742,205,-53,107
21.08499999999981,-2286,-3353,8812,751,89,540,187,-44,94
21.09699999999998,-3488,-4135,10546,895,290,357,199,-49,94
21.118999999999915,-3550,-4479,10594,1300,607,310,191,-50,83
21.14099999999985,-3142,-3333,7442,1394,874,256,185,-54,77
21.15300000000002,-3138,-3317,6798,1241,1001,226,193,-55,69
21.174999999999955,-3706,-3919,7966,1175,1117,304,193,-40,76
21.186999999999898,-3092,-3327,7274,1187,1138,417,196,-40,69
21.208999999999833,-2910,-2841,6226,1025,1202,485,197,-29,65
21.221000000000004,-3872,-3591,7614,883,1177,614,196,-40,62
21.242999999999938,-4426,-3433,6876,872,1140,894,201,-43,57
21.25499999999988,-4244,-2881,5374,612,1122,1167,196,-45,54
21.276999999999816,-5300,-4161,6818,424,975,1488,203,-20,47
21.298999999999978,-5306,-3957,6172,355,614,1913,205,-25,50
21.310999999999922,-4752,-3545,5092,42,497,2324,207,-26,46
21.332999999999856,-5458,-4577,5482,-256,572,2669,203,0,38
21.345000000000027,-6106,-5077,4984,-453,309,3112,204,1,44
21.366999999999962,-4732,-5215,3862,-740,-118,3427,199,16,34
21.378999999999905,-3686,-5473,3074,-1199,-275,3609,199,31,37
21.40099999999984,-3300,-6129,4244,-1597,-302,3663,187,16,41
21.423000000000002,-3298,-6595,5188,-1784,-376,3681,176,43,47
21.434999999999945,-2358,-6153,4738,-1875,-441,3645,180,39,56
21.45699999999988,-884,-5961,4344,-2082,-499,3407,162,48,64
21.468999999999824,4506,-5711,4850,-2403,-170,2864,169,55,71
21.490999999999985,-2264,-4509,5056,-2613,406,1757,142,65,81
21.50299999999993,-1954,-187,13040,-2029,-317,1235,148,56,77
21.524999999999864,2808,-313,11380,-1877,-214,512,150,65,90
21.547000000000025,2630,-2903,14958,-1386,84,-167,147,60,88
21.55899999999997,280,-2539,11916,-609,344,-635,145,50,98
21.580999999999904,-5054,-1667,7768,-508,784,-585,139,54,92
21.592999999999847,-4878,-3043,8984,-524,857,-103,136,46,101
21.61500000000001,-856,-1705,9334,-293,838,-26,145,53,105
21.626999999999953,-2044,-1779,8958,-125,1178,-76,153,34,92
21.648999999999887,-5164,-1077,5996,-67,1142,-106,147,40,90
21.66099999999983,-6278,-1267,5884,-177,964,37,146,36,84
21.682999999999993,-4960,-1031,6296,-191,731,69,151,41,89
21.704999999999927,-4378,-691,5924,-202,504,-27,164,30,81
21.71699999999987,-4226,-631,5658,-267,322,-104,161,34,82
21.739000000000033,-3626,-629,5912,-363,165,-219,165,36,82
21.750999999999976,-4708,-1487,6868,-392,57,-300,155,22,71
21.77299999999991,-5226,-1691,6960,-364,-8,-260,162,30,86
21.784999999999854,-5248,-1867,6978,-288,-135,-209,161,36,84
21.807000000000016,-4198,-1489,6754,-255,-247,-216,164,30,78
21.82899999999995,-4438,-1385,6390,-233,-361,-235,165,21,75
21.840999999999894,-3842,-1129,5800,-206,-645,-274,151,39,84
21.86299999999983,-5056,-1695,6848,-262,-944,-341,155,15,93
21.875,-3458,-1573,6876,-189,-985,-288,159,22,83
21.896999999999935,-4210,-2573,7858,-179,-936,-301,161,16,92
21.908999999999878,-3528,-1353,6664,-171,-956,-296,151,18,92
21.930999999999813,-3282,-2247,7664,-125,-900,-273,152,27,100
21.952999999999975,-3412,-1409,6348,-154,-1030,-304,152,17,102
21.964999999999918,-3120,-1797,6832,-175,-1248,-363,138,22,90
21.986999999999853,-3908,-2503,8198,-181,-1410,-442,145,7,107
21.999000000000024,-2208,-1539,6822,-109,-1469,-437,134,18,103
22.020999999999958,-2836,-1885,6686,-197,-1735,-448,131,8,106
22.0329999999999,-2570,-3151,9460,-237,-1703,-429,133,15,112
22.054999999999836,-1826,-2005,8240,-155,-1345,-354,124,13,125
22.076999999999998,-1574,-2693,8664,-148,-1091,-274,117,6,137
22.088999999999942,-1390,-2415,8318,-41,-683,-172,116,7,129
22.110999999999876,-1574,-2291,7906,-13,-572,-144,111,5,131
22.12299999999982,-1422,-2299,7890,18,-495,-126,110,-3,132
22.144999999999982,-1292,-2219,7894,62,-431,-100,115,1,125
22.156999999999925,-1364,-2331,8012,61,-336,-85,100,11,123
22.17899999999986,-1316,-2077,7754,89,-321,-71,116,12,133
22.19100000000003,-1250,-2127,7868,75,-261,-60,105,1,132
22.212999999999965,-1228,-2067,7786,54,-230,-59,100,8,130
22.229998000000023,-1188,-2061,7800,32,-178,-57,108,12,136
22.251999999999953,-1138,-2083,7856,28,-154,-48,105,8,132
22.263999999999896,-1216,-2061,7826,15,-109,-38,102,11,130
22.28599999999983,-1090,-2003,7700,-3,-83,-31,100,-1,132
22.298000000000002,-1186,-2349,8084,-17,-92,-38,108,15,138
22.319999999999936,-1054,-2089,7830,12,-96,-31,105,8,127
22.33199999999988,-1176,-2153,7840,-8,-90,-26,102,13,139
22.353999999999814,-1092,-2075,7828,-3,-78,-30,95,-3,137
22.375999999999976,-1068,-2137,7924,-18,-68,-33,106,5,126
22.38799999999992,-1182,-2021,7884,-25,-58,-32,107,3,130
22.409999999999854,-1188,-2207,7950,-40,-55,-45,104,17,129
22.422000000000025,-1242,-2131,7874,-21,-68,-48,99,-2,136
22.44399999999996,-1250,-2133,7884,-4,-79,-57,93,13,142
22.455999999999904,-1124,-2103,7902,2,-80,-61,101,-7,141
22.477999999999838,-1098,-2137,7832,1,-116,-55,111,10,133
22.5,-1080,-2147,7832,-8,-140,-62,105,8,142
22.511999999999944,-1008,-2123,7962,-16,-199,-76,90,-1,132
22.533999999999878,-954,-2057,7940,-33,-225,-77,111,10,141
22.54599999999982,-856,-1961,7916,-65,-212,-85,99,5,138
22.567999999999984,-974,-1883,7784,-144,-190,-114,108,-2,129
22.579999999999927,-1224,-2077,7820,-183,-228,-162,99,5,136
22.60199999999986,-1218,-1991,7994,-217,-283,-221,101,7,133
22.614000000000033,-1582,-2107,7898,-242,-419,-293,95,1,135
22.635999999999967,-1942,-1673,7934,-293,-718,-280,87,5,136
22.6579999999999,236,-2429,8096,-468,-916,-205,87,2,136
22.669999999999845,-1602,-1613,8418,-539,-445,-241,89,10,141
22.692000000000007,-4828,-1643,8062,-617,-473,21,93,-3,142
22.70399999999995,-5816,-1591,7972,-653,-232,527,81,-3,151
22.725999999999885,-3932,-1453,8674,-630,-118,925,87,0,150
22.73799999999983,-2676,-949,8180,-604,-101,1113,87,-10,143
22.75999999999999,-2072,-787,8002,-556,-142,1202,83,-6,156
22.781999999999925,-1600,-577,7668,-490,-240,1230,76,-6,144
22.79399999999987,-1530,-605,8056,-417,-257,1210,72,-12,141
22.81600000000003,-1792,-681,8226,-256,-167,1210,76,-6,161
22.827999999999975,-2298,-1085,8932,-59,-118,1251,82,-15,155
22.84999999999991,-2338,-961,7974,100,-120,1324,82,-2,150
22.861999999999853,-2518,-1075,7686,158,-63,1388,64,-8,161
22.884000000000015,-2464,-1153,7736,178,-67,1437,65,-12,150
22.90599999999995,-2650,-1327,8018,195,-47,1477,75,-10,155
22.917999999999893,-2674,-1483,8214,204,-18,1508,67,-5,157
22.939999999999827,-2826,-1885,8796,300,71,1563,59,-1,156
22.951999999999998,-2762,-1949,8126,328,79,1617,60,-2,157
22.973999999999933,-2794,-1917,7896,292,79,1676,56,13,156
22.985999999999876,-2936,-1949,7552,233,-4,1726,62,10,160
23.00799999999981,-2502,-2329,7780,233,76,1730,60,10,155
23.019999999999982,-2334,-1875,6790,225,73,1673,62,15,160
23.041999999999916,-3170,-2399,8210,105,300,1663,59,16,156
23.06399999999985,-4974,-3331,9094,253,532,1823,48,20,164
23.076000000000022,-4172,-2483,7328,342,488,1968,52,24,158
23.097999999999956,-3872,-2335,6548,71,632,2027,64,24,163
23.1099999999999,-3916,-2473,6680,-91,773,2063,43,30,157
23.131999999999834,-4206,-3009,7258,-163,553,2090,47,39,170
23.144000000000005,-3408,-2717,6738,-223,417,2045,54,39,163
23.16599999999994,-4026,-3479,8206,-213,414,1947,54,29,163
23.187999999999874,-4446,-3951,8864,75,251,1950,52,36,154
23.199999999999818,-2764,-3189,7376,318,55,1854,43,32,164
23.22199999999998,-1894,-2809,6250,304,147,1588,29,40,160
23.233999999999924,-2708,-3301,7138,251,221,1301,32,34,158
23.255999999999858,-3436,-3375,7278,343,281,1174,32,44,166
23.26800000000003,-3176,-2805,6422,372,256,1053,27,51,156
23.289999999999964,-3168,-2661,6338,282,350,913,27,54,166
23.301999999999907,-4056,-2895,6456,229,408,911,26,55,162
23.32399999999984,-4250,-2775,6114,136,258,1018,26,58,162
23.346000000000004,-4236,-2907,6116,20,133,1198,20,62,168
23.357999999999947,-3870,-2747,5910,-125,38,1401,25,56,163
23.37999999999988,-3592,-2885,5752,-323,-113,1570,21,63,160
23.391999999999825,-3314,-3213,5918,-498,-233,1674,15,67,166
23.413999999999987,-3392,-3257,5422,-709,-237,1810,12,60,164
23.435999999999922,-3456,-3463,5638,-910,-353,1924,0,58,172
23.447999999999865,-2434,-3843,5300,-1166,-585,1927,-4,63,169
23.470000000000027,-1862,-4689,5830,-1334,-580,1871,-29,50,181
23.48199999999997,-1062,-5041,5416,-1474,-631,1753,-13,34,180
23.503999999999905,-50,-5765,5406,-1617,-714,1492,-33,37,186
23.51599999999985,896,-6215,5098,-1746,-780,1124,-32,26,190
23.53800000000001,786,-1459,12292,-1392,-930,758,-38,12,203
23.549999999999955,4164,-75,9420,-1217,-773,90,-43,-2,186
23.57199999999989,3196,-1639,10494,-1069,-511,-633,-44,-6,192
23.593999999999824,-1504,-2091,8486,-923,-174,-898,-50,2,200
23.605999999999995,-4676,-1917,6620,-999,-200,-756,-60,-10,200
23.62799999999993,-3366,-2929,8264,-1075,-128,-454,-50,-12,200
23.639999999999873,-3626,-6341,14736,-788,-664,-386,-56,-13,185
23.662000000000035,-3248,-2591,7176,-371,-179,-185,-70,-22,200
23.673999999999978,-2658,-2637,8158,-339,-286,-148,-64,-26,192
23.695999999999913,-2876,-2631,8088,-239,-338,-134,-60,-25,193
23.707999999999856,-2628,-2301,7550,-177,-389,-146,-83,-24,182
23.730000000000018,-2362,-2381,7774,-173,-393,-136,-65,-27,203
23.751999999999953,-2102,-2257,7632,-163,-445,-143,-73,-36,185
23.763999999999896,-1882,-2401,7680,-153,-418,-137,-70,-27,193
23.78599999999983,-1796,-2221,7552,-162,-374,-114,-81,-21,187
23.798000000000002,-1830,-2251,7564,-171,-347,-117,-75,-30,193
23.819999999999936,-1994,-2317,7556,-215,-352,-125,-72,-27,188
23.83199999999988,-1760,-2537,7708,-240,-305,-97,-81,-29,190
23.853999999999814,-1730,-2475,7792,-236,-217,-73,-82,-37,188
23.875999999999976,-1602,-2455,7608,-225,-130,-56,-84,-27,191
23.88799999999992,-1646,-2609,7648,-201,-74,-37,-83,-41,185
23.909999999999854,-1760,-2605,7758,-190,-43,-24,-76,-36,206
23.922000000000025,-1722,-2629,7578,-174,-36,-22,-77,-40,186
23.94399999999996,-1732,-2589,7480,-120,-38,-22,-79,-45,196
23.955999999999904,-1746,-2637,7604,-105,-15,-22,-78,-41,197
23.977999999999838,-1714,-2721,7602,-97,-12,-22,-84,-43,191
23.990284999999858,-1644,-2627,7710,-55,-13,-11,-93,-44,187
24.011999999999944,-1746,-2559,7556,-65,-14,-16,-90,-49,192
24.033999999999878,-1748,-2609,7490,-72,-31,-33,-77,-40,191
24.04599999999982,-1698,-2601,7580,-64,-29,-41,-88,-39,192
24.067999999999984,-1698,-2655,7594,-61,-34,-42,-89,-43,188
24.079999999999927,-1684,-2621,7598,-53,-28,-38,-85,-39,194
24.10199999999986,-1664,-2659,7548,-48,-20,-36,-82,-32,200
24.114000000000033,-1686,-2705,7582,-41,-35,-41,-81,-49,197
24.135999999999967,-1704,-2635,7526,-32,-32,-49,-90,-29,190
24.1579999999999,-1694,-2675,7528,-34,-58,-51,-87,-30,205
24.169999999999845,-1684,-2723,7596,-16,-64,-57,-84,-37,198
24.192000000000007,-1686,-2743,7518,-6,-71,-58,-85,-41,192
24.20399999999995,-1638,-2681,7578,9,-72,-49,-93,-46,197
24.230998,-1610,-2661,7552,2,-83,-47,-83,-44,194
24.242999999999938,-1596,-2669,7538,12,-80,-53,-92,-35,191
24.25499999999988,-1604,-2681,7588,20,-88,-51,-87,-45,188
24.276999999999816,-1580,-2677,7560,18,-86,-50,-92,-43,193
24.298999999999978,-1566,-2587,7604,10,-90,-58,-81,-39,190
24.310999999999922,-1584,-2595,7572,3,-103,-67,-84,-35,198
24.332999999999856,-1490,-2629,7568,3,-113,-73,-85,-49,192
24.345000000000027,-1498,-2607,7532,-6,-108,-73,-90,-31,180
24.366999999999962,-1418,-2713,7550,-14,-120,-69,-87,-45,188
24.378999999999905,-1396,-2705,7628,-18,-115,-65,-93,-39,187
24.40099999999984,-1380,-2659,7596,-27,-93,-56,-82,-32,181
24.423000000000002,-1352,-2739,7544,-15,-61,-41,-88,-39,178
24.434999999999945,-1422,-2719,7614,-21,-51,-31,-82,-37,191
24.45699999999988,-1422,-2663,7608,-38,-36,-24,-85,-29,190
24.468999999999824,-1406,-2753,7588,-37,-37,-33,-87,-32,188
24.490999999999985,-1492,-2765,7658,-33,-47,-36,-99,-37,181
24.50299999999993,-1294,-2705,7644,-28,-50,-38,-90,-39,187
24.524999999999864,-1410,-2747,7614,-35,-53,-39,-100,-36,187
24.547000000000025,-1360,-2689,7588,-47,-34,-36,-94,-43,191
24.55899999999997,-1422,-2683,7678,-63,-25,-45,-99,-40,181
24.580999999999904,-1490,-2669,7648,-91,-24,-75,-96,-22,188
24.592999999999847,-1636,-2591,7612,-138,-32,-122,-95,-46,182
24.61500000000001,-1572,-2469,7612,-197,-63,-196,-93,-41,192
24.626999999999953,-1662,-2545,7606,-305,-95,-286,-96,-37,184
24.648999999999887,-1806,-2555,7688,-359,-203,-415,-92,-37,193
24.66099999999983,-968,-2607,7420,-391,-324,-549,-100,-46,197
24.682999999999993,-2152,-2827,7750,-464,-353,-781,-95,-31,187
24.704999999999927,-856,-3017,7818,-509,-366,-873,-101,-40,191
24.71699999999987,-646,-3173,7890,-636,-387,-1021,-99,-43,188
24.739000000000033,-1606,-3273,7890,-783,-606,-1050,-98,-44,187
24.750999999999976,-1132,-3303,7690,-875,-805,-1083,-110,-56,180
24.77299999999991,-1486,-2979,8266,-989,-911,-1097,-110,-49,180
24.784999999999854,-8210,-2005,8114,-1021,-883,-463,-107,-44,190
24.807000000000016,-9710,-1661,8148,-1012,-536,648,-121,-55,186
24.82899999999995,-6312,-969,8904,-873,-172,1483,-124,-54,173
24.840999999999894,-2834,19,8230,-687,-121,1755,-124,-69,175
24.86299999999983,-636,605,8902,-520,71,1676,-124,-79,185
24.875,556,945,9378,-248,217,1412,-119,-94,173
24.896999999999935,832,983,9788,100,191,1073,-127,-89,187
24.908999999999878,546,729,10196,478,168,748,-122,-97,190
24.930999999999813,-76,337,9820,842,114,497,-128,-91,196
24.952999999999975,-728,-61,9276,1140,104,293,-131,-94,202
24.964999999999918,-1680,-893,9618,1343,175,161,-119,-92,199
24.986999999999853,-2798,-1457,8920,1482,265,131,-128,-88,198
24.999000000000024,-3290,-1931,8474,1526,427,196,-128,-75,188
25.020999999999958,-4022,-2385,7860,1439,463,338,-110,-69,204
25.0329999999999,-4136,-2561,7372,1301,428,577,-117,-79,204
25.054999999999836,-3756,-2619,7366,1118,250,842,-112,-69,209
25.067000000000007,-2538,-2403,8038,879,35,1093,-119,-64,206
25.088999999999942,-1582,-3197,10034,821,92,1219,-111,-53,205
25.110999999999876,-1096,-3591,10060,951,242,1328,-108,-50,198
25.12299999999982,-244,-3023,8160,988,211,1282,-110,-46,206
25.144999999999982,-8,-3461,5894,707,76,1059,-112,-59,194
25.156999999999925,508,-4383,8114,506,-238,804,-102,-72,194
25.17899999999986,356,-3891,9066,632,-173,496,-105,-67,197
25.19100000000003,594,-3547,9128,686,58,65,-111,-75,181
25.212999999999965,-28,-3385,10042,899,623,-240,-111,-81,181
25.2349999999999,-1054,-2797,8712,1153,887,-414,-116,-108,186
25.246999999999844,-1066,-2025,6890,1132,948,-470,-110,-92,185
25.269000000000005,-1180,-2063,6840,984,999,-448,-105,-99,185
25.28099999999995,-1172,-2121,6840,848,983,-432,-96,-96,196
25.302999999999884,-1102,-2311,7452,752,914,-426,-81,-102,204
25.314999999999827,-1168,-2321,8028,815,917,-439,-88,-87,213
25.33699999999999,-1224,-2409,7870,853,1008,-480,-85,-105,209
25.34928500000001,-1684,-2507,6504,843,1033,-482,-79,-106,227
25.370999999999867,-2288,-2821,6354,770,795,-424,-67,-91,241
25.39300000000003,-2098,-3085,6578,669,601,-333,-66,-94,242
25.404999999999973,-1756,-2741,5876,595,440,-285,-59,-97,245
25.426999999999907,-1964,-2797,5800,437,339,-287,-60,-96,241
25.43899999999985,-2348,-3069,5740,326,310,-245,-49,-99,259
25.461000000000013,-2646,-2951,5026,159,175,-155,-38,-91,255
25.472999999999956,-2490,-3149,4924,-88,48,-41,-44,-87,256
25.49499999999989,-2500,-3691,5420,-265,-48,81,-36,-96,265
25.516999999999825,-2382,-3697,5108,-396,-190,215,-46,-101,262
25.528999999999996,1070,-4605,-512,-1412,-1111,-100,-41,-106,270
25.55099999999993,-2222,-45,10562,-1621,-1034,-248,-49,-112,268
25.562999999999874,1076,75,9256,-1824,-740,-734,-59,-127,271
25.58499999999981,158,-3179,10854,-1740,-806,-1019,-59,-137,268
25.59699999999998,-2742,-3381,9528,-1569,-478,-919,-67,-151,262
25.618999999999915,-4148,-3501,9576,-1452,-432,-655,-61,-163,266
25.64099999999985,-2688,-3159,9018,-1324,-342,-418,-73,-170,254
25.65300000000002,-4014,-6731,15726,-964,-903,-370,-72,-184,253
25.674999999999955,-2468,-2697,8458,-578,-361,-139,-79,-184,246
25.686999999999898,-2234,-2839,8114,-446,-264,-123,-92,-199,243
25.708999999999833,-2532,-2625,7932,-322,-275,-92,-85,-198,245
25.721000000000004,-2140,-2437,7858,-258,-286,-98,-84,-202,243
25.742999999999938,-2060,-2339,7682,-257,-287,-115,-88,-211,245
25.75499999999988,-2108,-2587,7840,-230,-247,-105,-101,-205,239
25.776999999999816,-1850,-2405,7776,-221,-204,-76,-93,-208,245
25.798999999999978,-2020,-2399,7496,-217,-154,-67,-93,-201,237
25.810999999999922,-2138,-2443,7546,-223,-178,-64,-101,-212,243
25.832999999999856,-2054,-2475,7510,-220,-199,-85,-96,-215,224
25.845000000000027,-2034,-2617,7606,-208,-205,-96,-102,-208,254
25.866999999999962,-1904,-2391,7460,-210,-216,-107,-101,-220,239
25.878999999999905,-1980,-2843,8006,-230,-269,-135,-104,-215,239
25.90099999999984,-1816,-2661,7630,-184,-236,-134,-108,-212,243
25.923000000000002,-1720,-2733,7652,-188,-224,-141,-113,-215,243
25.934999999999945,-1796,-2761,7608,-162,-184,-135,-110,-221,233
25.95699999999988,-1756,-2839,7616,-141,-175,-129,-108,-215,234
25.968999999999824,-1586,-2795,7524,-113,-161,-132,-111,-225,234
25.990999999999985,-1630,-2791,7778,-110,-130,-119,-108,-212,224
26.00299999999993,-1628,-2777,7504,-90,-75,-103,-113,-222,227
26.024999999999864,-1546,-2837,7490,-84,-74,-91,-117,-218,235
26.047000000000025,-1502,-2821,7500,-152,-73,-117,-118,-215,222
26.05899999999997,-1622,-3011,7370,-100,-33,-100,-110,-218,230
26.080999999999904,-1454,-2839,7394,-76,-54,-85,-121,-225,236
26.092999999999847,-1566,-2991,7574,-50,-8,-42,-119,-226,230
26.11500000000001,-1716,-2981,7624,-33,-7,-31,-124,-224,218
26.126999999999953,-1626,-2823,7434,-32,-17,-35,-123,-220,222
26.148999999999887,-1606,-2921,7566,-16,-23,-35,-117,-221,230
26.16099999999983,-1586,-2893,7498,-10,-12,-23,-111,-220,224
26.182999999999993,-1508,-2835,7510,-10,-10,-16,-115,-224,230
26.204999999999927,-1550,-2843,7474,-7,-7,-10,-123,-225,227
26.21699999999987,-1516,-2885,7554,-6,-4,-11,-106,-235,224
26.23399799999993,-1552,-2811,7506,4,-6,-5,-118,-225,231
26.255999999999858,-1552,-2831,7518,4,-7,-6,-115,-218,225
26.26800000000003,-1616,-2849,7552,8,-2,-9,-116,-232,224
26.289999999999964,-1522,-2817,7498,8,-4,-1,-117,-224,233
26.301999999999907,-1522,-2863,7544,18,0,0,-116,-232,227
26.32399999999984,-1548,-2831,7506,11,5,2,-123,-225,236
26.346000000000004,-1578,-2789,7524,4,2,1,-113,-220,224
26.357999999999947,-1626,-2837,7496,6,-8,-1,-121,-225,227
26.37999999999988,-1588,-2821,7524,1,-2,-8,-113,-225,222
26.391999999999825,-1374,-2533,6660,11,-4,-6,-110,-229,240
26.413999999999987,-1520,-2811,7558,14,-22,-1,-116,-212,236
26.42599999999993,-1562,-2777,7454,5,-18,-13,-129,-231,223
26.447999999999865,-1600,-2845,7526,-5,-4,-14,-119,-216,230
26.470000000000027,-1630,-2911,8124,-34,-201,-42,-111,-222,219
26.48199999999997,-1576,-2903,7690,6,-21,-23,-115,-218,235
26.503999999999905,-1556,-2819,7720,-36,-22,-28,-119,-226,233
26.51599999999985,-1578,-2765,7512,-56,28,-55,-115,-231,233
26.53800000000001,-1556,-2763,7496,-42,-22,-39,-121,-217,227
26.549999999999955,-1588,-2793,7532,-60,0,-54,-108,-227,222
26.57199999999989,-1636,-2755,7524,-86,4,-60,-118,-227,231
26.593999999999824,-1574,-2743,7508,-143,15,-86,-105,-226,237
26.605999999999995,-1638,-2807,7574,-198,34,-106,-112,-229,233
26.62799999999993,-1568,-2865,7526,-232,42,-112,-118,-230,229
26.639999999999873,-1458,-2597,7566,-303,76,-134,-121,-220,229
26.662000000000035,-1282,-2863,7516,-427,129,-191,-125,-230,224
26.673999999999978,-1554,-2831,7504,-495,181,-223,-121,-225,215
26.695999999999913,-1620,-2981,7408,-596,153,-284,-116,-227,219
26.707999999999856,-1606,-2897,7700,-745,215,-322,-115,-234,211
26.730000000000018,-1866,-2837,7862,-890,241,-420,-125,-237,231
26.751999999999953,-1864,-3383,7412,-1072,326,-584,-117,-234,221
26.763999999999896,-3594,-5525,10910,-931,496,-632,-119,-246,216
26.78599999999983,-1876,-3587,7652,-1323,449,-905,-122,-244,216
26.798000000000002,-1318,-3493,7184,-1500,195,-960,-125,-245,210
26.819999999999936,-1556,-4335,7216,-1602,312,-1047,-124,-254,206
26.83199999999988,-2080,-4683,8062,-1689,148,-1127,-125,-270,198
26.853999999999814,-2904,-3723,9808,-1496,108,-1168,-139,-267,199
26.875999999999976,-3320,-917,11620,-947,-24,-1045,-133,-280,198
26.88799999999992,-2460,387,9718,-509,134,-990,-131,-284,192
26.909999999999854,-3214,139,10364,151,390,-1030,-135,-278,196
26.922000000000025,-2908,789,7724,460,407,-966,-150,-278,205
26.94399999999996,-3558,375,8146,755,448,-837,-147,-275,215
26.955999999999904,-3710,391,7944,1040,489,-644,-148,-277,221
26.977999999999838,-3688,215,7776,1248,546,-452,-145,-263,219
26.99000000000001,-3674,-267,8384,1410,609,-253,-144,-254,237
27.011999999999944,-3598,-657,8726,1545,689,-83,-138,-253,260
27.033999999999878,-3332,-1081,9012,1679,772,77,-141,-249,266
27.04599999999982,-3128,-1409,9114,1773,834,221,-134,-231,285
27.067999999999984,-2896,-1807,9314,1816,837,362,-127,-211,295
27.079999999999927,-2648,-2145,9478,1841,755,498,-108,-197,310
27.10199999999986,-2208,-2587,9628,1849,650,593,-108,-177,327
27.114000000000033,-1738,-2625,9178,1817,509,639,-113,-172,332
27.135999999999967,-1590,-2887,9672,1756,348,626,-108,-141,346
27.1579999999999,-1892,-3535,10660,1800,414,643,-92,-131,358
27.169999999999845,-2204,-3491,9620,1855,513,712,-88,-120,359
27.192000000000007,-2368,-3461,8914,1792,604,816,-83,-102,371
27.20399999999995,-2450,-3573,8882,1699,676,953,-65,-75,372
27.225999999999885,-2352,-3951,9142,1664,745,1122,-67,-55,387
27.23799999999983,-1702,-4191,8888,1615,686,1236,-65,-48,392
27.25999999999999,-486,-3763,8722,1567,778,1247,-65,-25,387
27.281999999999925,724,-3993,7250,1420,628,1087,-47,3,386
27.29399999999987,1496,-3849,7046,1272,794,750,-38,5,382
27.31600000000003,1274,-4287,7226,1165,831,386,-15,16,386
27.327999999999975,902,-4175,6450,1089,714,33,-16,25,377
27.34999999999991,278,-3947,6022,984,536,-250,-3,51,381
27.361999999999853,-476,-3553,5824,881,335,-455,2,65,384
27.384000000000015,-1592,-3243,5526,753,253,-514,3,74,381
27.395999999999958,-2476,-2983,5166,549,49,-472,18,82,381
27.417999999999893,-2830,-2897,5366,296,38,-353,10,84,376
27.439999999999827,-2918,-2831,5266,177,-40,-218,23,94,378
27.451999999999998,-2222,-2759,4892,-18,-87,-162,7,93,368
27.473999999999933,-2278,-3173,5148,-233,-126,-186,24,98,377
27.485999999999876,2022,-3155,872,-844,10,-552,31,101,380
27.50799999999981,-1324,-1727,2324,-1575,-2,-1370,31,88,382
27.519999999999982,-6428,1279,10706,-1291,96,-1308,21,91,382
27.541999999999916,-6158,-919,4018,-1726,-291,-1358,30,72,381
27.56399999999985,-6714,-3297,9662,-1716,-364,-921,20,56,393
27.576000000000022,-3856,-2711,9554,-1617,-581,-723,23,49,400
27.597999999999956,-2038,-2443,9742,-1575,-174,-427,33,32,394
27.6099999999999,-438,-2561,10248,-1425,186,-479,29,25,408
27.631999999999834,-2264,-2485,8862,-1199,463,-524,20,6,412
27.644000000000005,-4212,-2823,7952,-1163,652,-371,35,-11,409
27.66599999999994,-6490,-5047,10892,-690,345,-188,47,-21,424
27.687999999999874,-4154,-2255,7340,-527,-122,2,39,-24,412
27.699999999999818,-4642,-2947,8118,-355,-162,-25,30,-26,419
27.72199999999998,-3570,-1839,7002,-273,-226,-14,33,-40,418
27.733999999999924,-3168,-2237,7404,-266,-237,-49,27,-39,421
27.755999999999858,-3200,-2199,7368,-330,-198,-42,30,-36,414
27.76800000000003,-2488,-2401,7900,-330,70,29,25,-49,419
27.789999999999964,-3148,-2409,7688,-327,241,70,25,-46,412
27.801999999999907,-3368,-2451,7630,-291,347,115,33,-43,425
27.82399999999984,-3526,-2337,7292,-225,429,129,33,-53,415
27.846000000000004,-3556,-2191,6972,-165,402,103,37,-56,421
27.857999999999947,-3648,-2559,7304,-116,382,68,49,-51,409
27.87999999999988,-3600,-2271,6908,-76,332,53,48,-48,413
27.891999999999825,-3562,-2341,6958,-66,258,31,43,-53,406
27.913999999999987,-3690,-2219,6866,-46,228,15,64,-49,414
27.92599999999993,-3622,-2415,7156,-20,227,13,54,-54,414
27.947999999999865,-3700,-2261,6964,24,231,-3,64,-49,412
27.970000000000027,-3742,-2221,6624,44,148,-37,59,-54,421
27.98199999999997,-3898,-2303,6446,26,63,-67,65,-45,425
28.003999999999905,-3564,-2439,7136,9,52,-32,56,-59,417
28.01599999999985,-3712,-2251,6880,2,40,-25,60,-50,411
28.03800000000001,-3766,-2185,6728,-5,51,-24,54,-54,417
28.049999999999955,-3762,-2263,6648,-11,16,-34,60,-50,420
28.07199999999989,-3804,-2199,6674,-31,-81,-56,66,-56,419
28.093999999999824,-3664,-2301,6932,-25,-79,-66,65,-60,425
28.105999999999995,-3760,-2305,6742,-28,-129,-85,59,-54,417
28.12799999999993,-3720,-2155,6512,-55,-222,-107,60,-58,411
28.139999999999873,-3590,-2379,7096,-67,-274,-115,47,-59,419
28.162000000000035,-3688,-2303,6778,-93,-271,-106,53,-58,413
28.173999999999978,-3550,-2315,6800,-140,-305,-105,49,-62,421
28.195999999999913,-3514,-2431,6942,-152,-355,-117,56,-64,431
28.207999999999856,-3494,-2495,7274,-151,-349,-119,54,-64,419
28.234997999999905,-3346,-2423,6998,-136,-285,-104,53,-70,415
28.246999999999844,-3268,-2515,7128,-130,-257,-103,39,-64,414
28.269000000000005,-3250,-2485,7150,-128,-198,-85,37,-62,426
28.28099999999995,-3240,-2549,7106,-107,-131,-69,41,-63,415
28.302999999999884,-3318,-2535,7062,-85,-134,-67,24,-60,411
28.314999999999827,-3368,-2609,7150,-88,-124,-72,33,-58,427
28.33699999999999,-3254,-2627,6980,-83,-142,-75,29,-60,418
28.34928500000001,-3180,-2571,7116,-81,-138,-82,31,-68,420
28.370999999999867,-3252,-2727,7242,-78,-119,-77,27,-79,424
28.39300000000003,-3172,-2459,6930,-93,-123,-85,21,-68,432
28.404999999999973,-3156,-2589,6968,-110,-145,-88,24,-75,423
28.426999999999907,-3154,-2619,6994,-119,-179,-97,20,-69,431
28.43899999999985,-3116,-2677,7112,-114,-202,-96,29,-75,427
28.461000000000013,-3048,-2731,7254,-104,-177,-92,29,-70,420
28.472999999999956,-3106,-2801,7226,-85,-146,-79,26,-73,427
28.49499999999989,-3002,-2743,7190,-72,-130,-65,16,-78,415
28.516999999999825,-3038,-2737,7226,-63,-107,-63,21,-83,423
28.528999999999996,-3018,-2753,7168,-69,-55,-52,29,-70,427
28.55099999999993,-3044,-2623,7062,-95,-52,-56,21,-70,432
28.562999999999874,-3072,-2541,7066,-154,-67,-102,20,-77,417
28.58499999999981,-3042,-2799,7250,-203,-44,-126,4,-65,418
28.59699999999998,-2944,-2705,7244,-260,51,-153,25,-77,429
28.618999999999915,-2808,-2647,7448,-341,123,-167,14,-81,423
28.64099999999985,-2922,-2493,7050,-418,190,-189,24,-78,427
28.65300000000002,-2988,-2609,7558,-556,320,-239,19,-96,415
28.674999999999955,-2964,-2663,7320,-697,449,-361,10,-94,417
28.686999999999898,-2960,-2903,7096,-815,596,-477,23,-105,419
28.708999999999833,-2964,-2813,7302,-1001,664,-615,26,-106,418
28.721000000000004,-3026,-2753,7046,-1144,773,-851,36,-116,423
28.742999999999938,-3370,-2611,6532,-1259,849,-1100,43,-124,430
28.75499999999988,-3418,-3207,6960,-1398,649,-1318,48,-144,411
28.776999999999816,-3674,-2993,8196,-1327,666,-1471,44,-155,405
28.798999999999978,-3538,353,10888,-821,200,-1410,56,-160,402
28.810999999999922,-3912,1451,11124,-115,-299,-1365,53,-174,404
28.832999999999856,-3438,1583,11280,535,-359,-1255,48,-174,396
28.845000000000027,-3556,1669,8446,932,-416,-1152,52,-175,407
28.866999999999962,-4206,1141,8182,1205,-451,-947,44,-170,398
28.878999999999905,-4362,1039,7364,1372,-480,-695,38,-156,411
28.90099999999984,-4840,233,8196,1498,-396,-431,35,-135,412
28.923000000000002,-5296,-559,8616,1656,-228,-115,44,-115,419
28.934999999999945,-5446,-1157,8178,1746,-86,201,44,-99,409
28.95699999999988,-5156,-1597,7362,1703,2,482,48,-70,420
28.968999999999824,-4730,-1927,6974,1550,-15,663,49,-46,421
28.990999999999985,-4716,-2773,7878,1424,-98,783,48,-30,411
29.00299999999993,-4140,-2617,8220,1339,-110,854,53,-15,408
29.024999999999864,-4182,-3541,9498,1351,100,964,59,13,407
29.047000000000025,-3780,-2959,7306,1318,152,1036,65,35,396
29.05899999999997,-2896,-2503,6078,1104,57,1029,61,51,383
29.080999999999904,-2234,-1915,6134,837,-164,896,55,60,375
29.092999999999847,-1444,-1915,6598,634,-368,722,64,74,374
29.11500000000001,-1512,-1595,7788,373,-478,551,53,93,349
29.126999999999953,-3614,-5341,13530,609,-125,572,43,98,344
29.148999999999887,-4276,-4449,10726,1225,220,840,54,89,328
29.16099999999983,-2748,-3219,6542,1248,202,861,54,110,328
29.182999999999993,-2128,-3107,5826,984,244,732,52,122,300
29.204999999999927,-1620,-3119,5652,712,230,529,54,120,285
29.21699999999987,-942,-3077,6466,463,224,252,53,129,277
29.239000000000033,-1328,-4477,10132,489,615,16,60,136,277
29.250999999999976,-2250,-4695,9990,945,1017,10,59,135,245
29.27299999999991,-1864,-3049,6272,1128,764,-32,49,143,249
29.284999999999854,-964,-2769,5412,946,588,-181,69,143,225
29.307000000000016,-1550,-3105,5862,797,544,-330,79,134,219
29.32899999999995,-1996,-3199,6222,737,437,-461,70,131,215
29.340999999999894,-2454,-2833,6228,684,346,-547,82,141,203
29.36299999999983,-2882,-2547,6210,637,397,-570,87,139,191
29.375,-3678,-2463,6026,609,405,-499,85,135,190
29.396999999999935,-4158,-1789,5232,454,319,-279,95,135,180
29.408999999999878,-3876,-1607,5534,216,195,-41,99,134,167
29.430999999999813,-3192,-1697,6008,68,128,93,108,126,172
29.452999999999975,-2566,-1991,6400,-33,55,95,95,137,180
29.464999999999918,-2170,-2217,6042,-89,31,39,104,136,162
29.486999999999853,-1874,-2335,4830,-265,-6,-33,106,121,153
29.499000000000024,-2108,-2945,4426,-552,-79,-86,98,125,151
29.520999999999958,-2584,-3249,-2144,-1194,-359,-179,111,121,157
29.5329999999999,-972,-2401,7408,-1682,-889,-439,107,112,170
29.554999999999836,-2984,835,10762,-1525,-822,-546,99,111,157
29.567000000000007,598,-1029,6922,-1732,-745,-1091,101,111,164
29.588999999999942,-1810,-3285,10998,-1565,-467,-1150,101,93,169
29.610999999999876,-3490,-2785,8088,-1396,-536,-1127,104,86,176
29.62299999999982,-5070,-3887,8880,-1333,-544,-847,107,84,170
29.644999999999982,-3758,-3471,9018,-1158,-629,-589,107,59,178
29.656999999999925,-3218,-4233,9046,-595,-736,-371,122,72,170
29.67899999999986,-2368,-3115,9284,-480,-706,-257,106,60,188
29.69100000000003,-2490,-2909,8542,-312,-494,-171,98,62,180
29.712999999999965,-2346,-2513,7992,-224,-400,-120,104,58,184
29.7349999999999,-2230,-2471,7968,-221,-346,-69,101,58,186
29.746999999999844,-2112,-2427,7782,-194,-224,-42,105,51,182
29.769000000000005,-2188,-2409,7798,-177,-189,-23,95,46,185
29.78099999999995,-2332,-2213,7514,-163,-182,-27,89,53,196
29.802999999999884,-2268,-2343,7542,-178,-198,-48,110,54,185
29.814999999999827,-2356,-2391,7468,-162,-237,-64,90,59,192
29.83699999999999,-2274,-2389,7516,-173,-275,-80,95,56,197
29.848999999999933,-2182,-2541,7706,-193,-294,-92,96,53,186
29.870999999999867,-1990,-2467,7658,-150,-284,-86,95,49,182
29.89300000000003,-2000,-2557,7614,-150,-271,-86,88,59,178
29.904999999999973,-1934,-2483,7608,-172,-260,-94,92,53,188
29.926999999999907,-1868,-2813,7884,-141,-284,-94,81,49,187
29.93899999999985,-1902,-2739,7746,-127,-311,-107,93,54,190
29.961000000000013,-1732,-2585,7636,-97,-300,-123,87,45,184
29.972999999999956,-1790,-2561,7688,-74,-256,-104,92,53,186
29.99499999999989,-1736,-2543,7464,-80,-252,-113,85,39,190
30.016999999999825,-1626,-2815,7876,-41,-212,-88,77,45,184
30.028999999999996,-1630,-2649,7970,-44,-136,-69,87,45,184
30.05099999999993,-1504,-2531,7422,-32,-106,-56,87,50,196
30.062999999999874,-1606,-2649,7710,-55,-71,-42,84,50,191
30.08499999999981,-1530,-2613,7500,-50,-42,-46,88,44,190
30.09699999999998,-1562,-2651,7662,-23,-68,-39,81,49,192
30.118999999999915,-1450,-2639,7572,-26,-52,-44,81,59,197
30.14099999999985,-1534,-2539,7486,-27,-34,-42,82,32,191
30.15300000000002,-1694,-2749,7640,-46,-16,-52,77,40,193
30.174999999999955,-1264,-2403,7858,-146,-69,-100,79,50,193
30.186999999999898,-1536,-2551,7414,-25,5,-52,76,46,192
30.208999999999833,-1784,-2831,7632,-83,-22,-65,88,41,199
30.221000000000004,-1620,-2843,7680,-16,16,-23,79,40,200
30.237997999999834,-1788,-2603,7436,-25,60,-23,88,44,199
30.25999999999999,-1570,-2675,7586,-36,51,-24,82,43,198
30.281999999999925,-1622,-2573,7528,-75,57,-43,71,51,194
30.29399999999987,-1592,-2655,7574,-102,28,-59,77,45,186
30.31600000000003,-1606,-2747,7616,-94,5,-62,94,45,191
30.327999999999975,-1596,-2825,7604,-63,-2,-51,81,36,197
30.34999999999991,-1466,-2685,7644,-45,13,-31,87,45,188
30.361999999999853,-1454,-2745,7588,-43,29,-13,87,48,203
30.384000000000015,-1606,-2775,7570,-37,40,-9,93,39,190
30.40599999999995,-1588,-2789,7586,-31,38,-3,89,27,198
30.417999999999893,-1664,-2801,7558,-24,32,-1,90,36,190
30.439999999999827,-1704,-2735,7578,-16,22,-10,84,43,203
30.451999999999998,-1670,-2713,7526,-11,17,-5,87,32,198
30.473999999999933,-1682,-2767,7524,-7,5,-13,89,35,200
30.485999999999876,-1644,-2713,7498,-5,1,-18,89,40,193
30.50799999999981,-1648,-2725,7570,-4,-3,-16,89,37,193
30.519999999999982,-1636,-2803,7526,0,-1,-16,89,43,193
30.541999999999916,-1578,-2799,7504,7,2,-14,84,27,186
30.56399999999985,-1708,-2713,7522,-5,3,-23,89,35,196
30.576000000000022,-1756,-2649,7456,-45,13,-33,87,55,193
30.597999999999956,-1666,-2615,7488,-99,0,-70,83,41,194
30.6099999999999,-1656,-2593,7502,-177,10,-104,94,37,186
30.631999999999834,-1608,-2631,7546,-265,27,-145,88,36,202
30.644000000000005,-1604,-2669,7542,-363,50,-180,90,39,192
30.66599999999994,-1666,-2655,7526,-471,77,-229,84,37,203
30.687999999999874,-1158,-2529,7504,-609,86,-290,93,36,197
30.699999999999818,-1738,-2751,7754,-776,147,-422,94,32,200
30.72199999999998,-1220,-2857,7818,-859,137,-501,94,27,198
30.733999999999924,-2696,-3097,7708,-891,124,-502,87,17,205
30.755999999999858,-1778,-3275,6878,-1026,185,-629,96,7,200
30.76800000000003,-1788,-3531,7372,-1280,218,-845,98,16,199
30.789999999999964,-1620,-3683,7592,-1397,220,-1037,99,5,200
30.801999999999907,-1522,-3999,7398,-1504,200,-1156,102,-6,202
30.82399999999984,-1690,-4313,7324,-1573,126,-1252,95,-24,202
30.846000000000004,-1738,-4531,7940,-1647,109,-1309,101,-27,200
30.857999999999947,-2560,-3875,9088,-1555,110,-1370,106,-30,193
30.87999999999988,-3492,-1607,10732,-1097,-175,-1304,102,-54,194
30.891999999999825,-3174,43,9798,-645,-96,-1202,104,-55,203
30.913999999999987,-3120,-279,10192,-217,54,-1054,94,-73,191
30.92599999999993,-4636,-473,9352,268,225,-797,96,-75,207
30.947999999999865,-4178,-235,7780,518,293,-495,94,-75,188
30.970000000000027,-3900,-429,8012,661,433,-207,92,-86,191
30.98199999999997,-3336,-609,8256,861,502,40,100,-97,178
31.003999999999905,-2602,-643,8116,1029,588,237,104,-83,176
31.01599999999985,-2238,-1059,8974,1219,642,395,110,-97,173
31.03800000000001,-1646,-1145,8752,1435,698,497,89,-91,167
31.059999999999945,-904,-1347,8834,1581,753,518,99,-101,155
31.07199999999989,-536,-1559,8768,1675,792,473,90,-99,156
31.093999999999824,-150,-1835,9236,1747,725,363,93,-107,161
31.105999999999995,368,-2037,8860,1804,585,234,81,-99,156
31.12799999999993,310,-2275,9836,1940,542,25,79,-113,157
31.139999999999873,652,-1015,10932,1985,268,-176,85,-107,166
31.162000000000035,568,-2171,8230,1930,457,-475,81,-107,182
31.173999999999978,780,-2125,8338,1794,199,-684,81,-112,197
31.195999999999913,818,-2537,9222,1568,66,-884,92,-106,207
31.217999999999847,594,-2899,9798,1484,84,-1054,78,-110,216
31.230000000000018,186,-3825,11172,1511,185,-1145,77,-88,231
31.251999999999953,-152,-4967,13330,1776,817,-1034,87,-81,231
31.263999999999896,-1120,-4619,10650,2120,1333,-737,95,-74,247
31.28599999999983,-700,-4183,7660,2036,1092,-462,100,-64,242
31.298000000000002,254,-4637,8352,1877,1016,-307,115,-24,240
31.319999999999936,788,-4877,7936,1839,928,-342,108,-20,229
31.33199999999988,1618,-4393,7046,1727,847,-509,115,-11,233
31.353999999999814,1204,-4451,6312,1574,846,-710,115,-8,230
31.375999999999976,724,-4609,5688,1385,742,-851,123,15,234
31.38799999999992,264,-4577,4734,1121,547,-937,129,16,233
31.409999999999854,-390,-4761,5422,873,464,-959,139,13,221
31.422000000000025,-1002,-4195,4692,661,436,-916,135,35,212
31.44399999999996,-1356,-4261,5230,440,302,-852,150,35,212
31.455999999999904,-1456,-4219,5200,288,255,-771,150,32,217
31.477999999999838,-1516,-3975,4604,74,78,-745,152,30,215
31.5,-2066,-5105,1698,-354,10,-864,151,26,206
31.511999999999944,1052,-6229,2490,-1028,-579,-1280,155,17,207
31.533999999999878,-3814,811,11354,-1035,-664,-1242,151,13,223
31.54599999999982,-4884,-735,5860,-1335,-255,-1305,162,20,222
31.567999999999984,-5282,-2689,9174,-1403,-487,-955,145,12,227
31.579999999999927,-3376,-2565,8366,-1350,-686,-672,153,-3,221
31.60199999999986,-2360,-2933,10478,-1219,-635,-517,140,-20,236
31.624000000000024,-1878,-2377,9164,-1024,-440,-412,150,-32,239
31.635999999999967,-2644,-2371,8530,-943,-301,-313,148,-26,230
31.6579999999999,-2144,-2061,8240,-878,-194,-207,144,-29,230
31.669999999999845,-1492,-1917,7764,-818,-108,-226,131,-46,230
31.692000000000007,-3390,-3861,10038,-540,-151,-212,139,-51,240
31.70399999999995,-2528,-2187,8288,-475,-331,-147,136,-62,245
31.725999999999885,-2390,-2587,8090,-419,-378,-178,133,-55,243
31.73799999999983,-2200,-2245,7534,-324,-371,-165,138,-50,248
31.75999999999999,-2146,-2703,8102,-325,-433,-153,127,-62,242
31.781999999999925,-1522,-2593,8266,-325,-430,-124,130,-63,239
31.79399999999987,-1698,-2381,7936,-303,-299,-94,130,-68,243
31.81600000000003,-1668,-2433,7764,-254,-249,-55,129,-67,245
31.827999999999975,-1832,-2627,7836,-232,-226,-65,127,-72,256
31.84999999999991,-1690,-2339,7430,-183,-183,-59,125,-75,248
31.861999999999853,-1804,-2417,7818,-136,-182,-80,124,-74,245
31.884000000000015,-1668,-2271,7276,-151,-239,-101,123,-68,248
31.895999999999958,-1514,-2465,7486,-150,-193,-83,116,-78,246
31.917999999999893,-1484,-2727,8038,-137,-133,-65,118,-78,251
31.939999999999827,-1458,-2581,7838,-96,-94,-41,122,-84,256
31.951999999999998,-1540,-2577,7622,-78,-56,-38,117,-72,254
31.973999999999933,-1710,-2673,7816,-63,-51,-35,112,-79,254
31.985999999999876,-1564,-2619,7678,-31,-53,-28,105,-79,254
32.00799999999981,-1554,-2575,7680,-19,-30,-18,113,-70,253
32.01999999999998,-1538,-2513,7620,-10,-25,-11,112,-79,242
32.041999999999916,-1520,-2509,7632,-21,-14,-17,116,-78,248
32.06399999999985,-1604,-2501,7642,-27,-7,-27,119,-67,261
32.07600000000002,-1570,-2499,7570,-23,-7,-28,116,-86,248
32.097999999999956,-1524,-2497,7650,-23,-12,-29,118,-70,248
32.1099999999999,-1668,-2643,7552,-38,-57,-42,118,-75,248
32.131999999999834,-1510,-2525,7728,6,-19,-21,123,-70,246
32.144000000000005,-1552,-2441,7540,-3,-1,-16,112,-79,247
32.16599999999994,-1536,-2413,7626,-62,-22,-19,111,-78,246
32.187999999999874,-1468,-2503,7628,-52,3,-25,116,-78,248
32.19999999999982,-1642,-2579,7612,-54,1,-33,115,-82,249
32.22199999999998,-1582,-2603,7624,-48,-3,-32,113,-75,251
32.23899799999981,-1362,-2069,6854,-56,-95,-42,116,-81,248
32.250999999999976,-1504,-2481,7614,-9,-17,-27,121,-75,251
32.27299999999991,-1388,-2441,7444,-17,-39,-30,112,-77,242
32.284999999999854,-1548,-2701,7710,-54,-19,-21,117,-82,240
32.307000000000016,-1500,-2519,7562,-47,53,-1,106,-78,253
32.32899999999995,-1360,-2205,6578,-21,28,-3,112,-79,242
32.340999999999894,-1546,-2579,7776,-46,7,-14,113,-81,251
32.36299999999983,-1576,-2535,7404,-71,12,-22,107,-74,256
32.375,-1520,-2553,7572,-77,15,-21,115,-77,259
32.396999999999935,-1586,-2541,7570,-88,18,-18,115,-77,245
32.40899999999988,-1574,-2517,7610,-119,25,-26,118,-81,248
32.43099999999981,-1622,-2625,7504,-156,23,-45,108,-83,239
32.442999999999984,-1530,-2695,7650,-167,45,-48,121,-75,248
32.46499999999992,-1618,-2765,7566,-184,71,-44,121,-91,251
32.48699999999985,-1708,-2805,7524,-178,64,-44,122,-84,240
32.499000000000024,-1538,-2823,7566,-147,52,-50,122,-82,249
32.52099999999996,-1598,-2775,7588,-138,55,-50,123,-91,251
32.5329999999999,-1540,-2773,7612,-146,68,-46,115,-84,240
32.554999999999836,-1680,-2739,7572,-202,73,-53,125,-83,251
32.56700000000001,-1646,-2741,7488,-254,96,-57,115,-89,240
32.58899999999994,-1708,-2731,7454,-347,105,-92,128,-93,251
32.610999999999876,-1616,-2735,7484,-435,123,-120,117,-87,249
32.62299999999982,-1596,-2587,7442,-562,170,-153,119,-97,245
32.64499999999998,-1798,-2635,7368,-709,237,-220,130,-91,243
32.656999999999925,-1916,-2889,7402,-814,319,-307,122,-92,247
32.67899999999986,-1946,-3001,7486,-942,336,-328,122,-105,237
32.69100000000003,-1934,-3197,7662,-1127,384,-397,125,-101,239
32.712999999999965,-1820,-3569,7266,-1290,418,-429,124,-122,245
32.7349999999999,-2042,-4011,7318,-1475,380,-523,124,-127,245
32.746999999999844,-2054,-3793,7584,-1614,489,-587,134,-132,230
32.769000000000005,-1678,-4257,7272,-1751,673,-658,138,-131,236
32.78099999999995,-1950,-4033,7490,-1845,731,-731,140,-167,229
32.802999999999884,-2124,-4573,8058,-1880,777,-829,134,-168,218
32.81499999999983,-3332,-3643,8664,-1753,791,-824,142,-184,215
32.83699999999999,-1758,-1189,10200,-1328,371,-894,128,-197,215
32.84899999999993,-134,371,10878,-727,401,-1156,139,-206,204
32.87099999999987,-112,845,10516,-126,252,-1494,136,-206,197
32.89300000000003,-2046,-147,10916,474,291,-1660,130,-215,188
32.90499999999997,-4310,583,9126,951,283,-1397,130,-222,203
32.92699999999991,-5064,565,8480,1188,307,-851,133,-207,205
32.93899999999985,-4448,159,8890,1407,384,-278,136,-206,216
32.96100000000001,-2866,-339,9102,1674,398,79,125,-192,207
32.972999999999956,-1700,-1219,10092,1966,429,169,124,-203,230
32.99499999999989,-1416,-1775,9756,2256,398,127,138,-184,229
33.016999999999825,-1630,-2131,9060,2421,427,83,133,-167,241
33.028999999999996,-1908,-2451,8936,2445,442,124,142,-154,241
33.05099999999993,-1822,-2623,9062,2406,465,189,142,-136,241
33.062999999999874,-1452,-2963,9364,2345,453,203,142,-98,243
33.08499999999981,-714,-3119,8774,2296,268,131,135,-83,243
33.09699999999998,32,-3111,8698,2181,154,-140,142,-65,246
33.118999999999915,62,-3093,8320,2031,-41,-451,145,-48,239
33.14099999999985,276,-3309,8844,1833,-123,-746,129,-34,235
33.15300000000002,-168,-3747,9026,1644,6,-963,135,-35,231
33.174999999999955,-766,-4839,10530,1551,463,-1035,136,-18,218
33.1869999999999,-1582,-5429,9948,1632,947,-921,144,-24,211
33.20899999999983,-1580,-5107,7726,1588,1045,-797,141,-11,199
33.221000000000004,-1304,-5479,7770,1469,938,-719,146,-13,192
33.24299999999994,-994,-5713,7952,1444,839,-670,150,-10,203
33.25499999999988,-538,-5369,7762,1441,812,-638,144,-1,194
33.276999999999816,-262,-4613,6252,1327,830,-650,170,6,182
33.29899999999998,-880,-4447,6266,1164,724,-665,173,13,180
33.31099999999992,-1496,-4365,6670,1064,539,-585,163,8,185
33.332999999999856,-1762,-3857,5654,967,439,-461,175,13,166
33.34500000000003,-1878,-3877,5658,748,378,-378,170,11,170
33.36699999999996,-1860,-3919,5808,637,358,-307,176,17,174
33.378999999999905,-1530,-3611,5392,539,247,-254,168,31,161
33.40099999999984,-1600,-3539,5056,364,257,-171,182,16,168
33.423,-1522,-3805,5258,162,90,-114,179,30,155
33.434999999999945,-1738,-3871,5486,-19,-22,-42,175,21,161
33.45699999999988,-1768,-3701,5364,-179,-95,39,179,20,150
33.468999999999824,-1502,-3305,5420,-370,-206,88,188,17,155
33.490999999999985,450,555,2534,-1053,-409,-233,190,21,161
33.50299999999993,-2856,2269,10784,-918,-577,-513,196,20,167
33.524999999999864,-1306,287,5718,-1264,-440,-946,185,3,168
33.537000000000035,-3156,-2233,10146,-1335,-391,-811,186,7,169
33.55899999999997,-2576,-1951,8258,-1248,-339,-655,170,-1,175
33.580999999999904,-2258,-1633,8534,-1282,-301,-575,187,-18,178
33.59299999999985,-1916,-1729,7906,-1247,-148,-472,176,-35,179
33.61500000000001,-1624,-1185,7410,-1302,-66,-499,182,-29,185
33.62699999999995,-2228,-2015,7486,-1366,-59,-551,181,-35,186
33.64899999999989,-2898,-2355,7072,-1346,-193,-550,168,-39,190
33.66099999999983,-5530,-5275,9680,-780,-700,-364,175,-49,185
33.68299999999999,-1410,-3087,10158,-599,-734,-278,176,-45,184
33.70499999999993,-2614,-3099,8200,-425,-568,-187,175,-82,185
33.71699999999987,-1252,-2867,8756,-343,-446,-143,165,-59,190
33.73900000000003,-1626,-2589,8314,-242,-248,-83,156,-72,185
33.750999999999976,-1654,-2353,7864,-224,-113,-49,158,-79,187
33.77299999999991,-1786,-2591,7918,-218,-39,-42,167,-68,198
33.784999999999854,-1930,-2487,7744,-207,-37,-54,161,-69,185
33.807000000000016,-2100,-2469,7550,-178,-62,-51,156,-77,192
33.82899999999995,-2070,-2511,7562,-150,-93,-69,158,-82,197
33.840999999999894,-2052,-2451,7560,-130,-146,-82,165,-74,192
33.86299999999983,-1818,-2447,7720,-136,-185,-89,155,-81,184
33.875,-1800,-2569,7686,-129,-154,-85,151,-79,192
33.896999999999935,-1678,-2537,7572,-110,-126,-75,158,-82,194
33.90899999999988,-1758,-2647,7720,-97,-123,-68,161,-82,194
33.93099999999981,-1706,-2603,7612,-69,-116,-66,158,-84,194
33.942999999999984,-1704,-2573,7506,-81,-114,-77,158,-79,197
33.96499999999992,-1758,-2587,7536,-67,-120,-76,158,-79,202
33.98699999999985,-1634,-2527,7522,-55,-106,-72,148,-84,202
33.999000000000024,-1646,-2615,7618,-72,-134,-80,159,-73,203
34.02099999999996,-1654,-2573,7532,-49,-92,-69,153,-82,192
34.0329999999999,-1606,-2571,7562,-58,-68,-57,157,-86,198
34.054999999999836,-1590,-2839,7782,-62,-97,-71,145,-88,203
34.06700000000001,-1494,-2471,7630,-54,-66,-82,152,-75,196
34.08899999999994,-1726,-2811,7760,-36,-95,-84,153,-89,206
34.110999999999876,-2194,-3747,10700,-19,-244,-86,155,-83,200
34.12299999999982,-1802,-2647,7916,130,25,-47,142,-86,191
34.14499999999998,-550,-1289,6390,-12,34,-88,145,-91,196
34.156999999999925,-1280,-2587,7578,33,-35,-49,148,-89,199
34.17899999999986,-1400,-2673,7570,-10,-16,-40,144,-84,197
34.19100000000003,-1450,-2719,7692,-64,-17,-53,151,-79,209
34.212999999999965,-1516,-2797,7594,-96,-34,-59,146,-84,199
34.239998000000014,-1582,-2747,7588,-57,-42,-45,152,-91,191
34.25199999999995,-1442,-2685,7638,-59,-27,-43,152,-81,198
34.263999999999896,-1416,-2733,7608,-56,-20,-42,142,-91,212
34.28599999999983,-1382,-2781,7600,-44,-13,-38,146,-94,204
34.298,-1446,-2751,7574,-41,0,-29,142,-88,198
34.319999999999936,-1376,-2813,7576,-33,3,-25,153,-79,199
34.33199999999988,-1550,-2809,7570,-20,9,-14,153,-89,199
34.353999999999814,-1518,-2799,7546,-18,5,-6,145,-86,198
34.375999999999976,-1462,-2779,7572,-16,16,-3,144,-89,192
34.38799999999992,-1466,-2743,7588,-14,29,2,151,-94,204
34.409999999999854,-1472,-2745,7600,-19,39,7,163,-69,194
34.422000000000025,-1466,-2711,7570,-18,39,9,150,-81,203
34.44399999999996,-1470,-2737,7530,-17,42,3,147,-96,207
34.455999999999904,-1494,-2699,7510,-9,48,6,146,-84,206
34.47799999999984,-1556,-2623,7530,-43,57,-2,158,-87,211
34.49000000000001,-1544,-2633,7596,-104,76,-30,147,-93,198
34.511999999999944,-1662,-2649,7522,-184,95,-63,153,-94,202
34.53399999999988,-1566,-2763,7540,-251,79,-107,150,-93,198
