Tiempo,AccX,AccY,AccZ,GyrX,GyrY,GyrZ,MagX,MagY,MagZ
0.0,-800,110,8490,-52,-116,-92,-18,56,149
0.02200000000016189,-1234,-6,8350,-28,266,-17,-14,65,148
0.0340000000001055,-502,182,8418,-33,67,-43,-13,49,139
0.05600000000004002,-604,284,8024,-64,-39,-82,-16,53,148
0.06799999999998363,-1134,204,8388,-86,-14,-67,-8,59,135
0.09000000000014552,-786,372,7932,-97,151,-110,-18,62,156
0.10200000000008913,-1230,222,8722,-126,329,-50,-15,51,144
0.12400000000002365,-600,280,8130,-101,171,-20,-10,46,151
0.14600000000018554,-1416,94,8328,-115,385,-114,-14,53,143
0.15800000000012915,-1076,222,8038,-118,317,-10,-16,48,136
0.18000000000006366,-1198,224,7656,-161,198,-77,-6,59,149
0.19200000000000728,-990,202,8100,-220,-118,-101,-14,60,155
0.21400000000016917,-1106,138,8324,-226,-215,-102,-8,51,151
0.22600000000011278,-1244,88,8320,-242,-53,-94,-4,60,155
0.2480000000000473,-170,286,7626,-293,-530,-125,3,56,149
0.2599999999999909,-1856,-80,8548,-359,-373,-184,-16,53,143
0.2820000000001528,-1556,-160,8730,-261,331,24,-8,56,151
0.3040000000000873,-1022,-204,8632,-216,732,25,-21,43,157
0.3160000000000309,-388,-6,7764,-267,137,-84,-8,54,156
0.3380000000001928,-1760,-222,8340,-272,313,-102,-6,51,154
0.3500000000001364,-1708,-186,7926,-286,630,-16,0,55,157
0.37699800000018513,-922,-110,7624,-321,240,-12,-4,40,157
0.3890000000001237,-1162,-268,8072,-434,-248,-79,6,41,151
0.4010000000000673,-1432,-578,8774,-413,-297,-117,0,45,153
0.4230000000000018,-1506,-650,9004,-249,51,-40,-1,31,156
0.4450000000001637,-1576,-622,8772,-212,100,15,-2,50,167
0.4570000000001073,-1102,-550,8578,-140,91,29,-10,49,163
0.47900000000004184,-1086,-640,8488,-137,282,60,0,35,160
0.49099999999998545,-1144,-632,8388,-99,267,-35,0,40,153
0.5130000000001473,-1228,-606,8150,-68,221,-29,2,40,160
0.5350000000000819,-1344,-748,8556,-73,369,-50,4,27,157
0.5470000000000255,-1040,-668,8358,-71,237,-41,3,31,158
0.5690000000001874,-1204,-580,8142,-40,72,-108,3,34,163
0.581000000000131,-1558,-610,7818,-28,-22,-115,-4,27,153
0.6030000000000655,-1430,-540,7994,-111,-443,-173,2,37,157
0.6150000000000091,-1944,-670,8624,-71,-318,-151,6,26,154
0.637000000000171,-1808,-640,8684,18,74,-40,1,39,158
0.6490000000001146,-2018,-690,8534,85,865,53,0,37,155
0.6710000000000491,-808,-356,6782,33,501,33,3,39,154
0.6929999999999836,-1442,-458,7252,-122,-253,-94,-3,36,151
0.7050000000001546,-1748,-638,8656,-212,-416,-125,8,39,163
0.7270000000000891,-1678,-646,8192,-79,-236,-17,4,37,172
0.7390000000000327,-1038,-620,8204,-166,-395,-48,4,37,164
0.7610000000001946,-1578,-870,8726,-186,-45,-36,4,37,157
0.7730000000001382,-1678,-830,8724,-54,489,-1,1,36,161
0.7950000000000728,-762,-652,7226,-48,215,107,9,32,164
0.8070000000000164,-1698,-696,7964,-190,-329,-161,0,40,157
0.8290000000001783,-1598,-738,8472,-190,-38,-27,4,35,162
0.8510000000001128,-1728,-804,7842,-223,135,-40,-3,44,161
0.8630000000000564,-1946,-1012,8406,-318,313,35,4,17,162
0.8849999999999909,-1220,-938,8086,-323,125,84,4,30,167
0.8970000000001619,-1364,-904,7888,-344,63,32,8,24,161
0.9190000000000964,-1194,-812,7752,-485,-143,-2,2,30,162
0.93100000000004,-1114,-978,7530,-615,-390,-14,3,24,170
0.9530000000002019,-1690,-1216,7476,-752,-372,-67,10,21,173
0.9750000000001364,-1100,-1354,8302,-852,-366,3,-7,27,167
0.98700000000008,-1142,-1546,7680,-962,-109,-27,-3,13,170
1.0090000000000146,-2248,-1940,8168,-1076,166,-45,-16,12,169
1.0210000000001855,-1142,-2288,9418,-944,46,153,-3,6,173
1.04300000000012,-1088,-2250,8118,-858,116,75,1,1,173
1.0550000000000637,-1144,-2228,7748,-776,221,58,-3,-3,180
1.0769999999999982,-790,-2066,6850,-896,48,-90,6,-3,168
1.09900000000016,-1214,-2348,7240,-1079,-226,-172,-8,-11,182
1.1110000000001037,-1812,-2804,8152,-1100,-547,-130,0,-10,179
1.1330000000000382,-1840,-2998,9258,-936,-304,-100,1,-13,175
1.1449999999999818,-1130,-2950,8742,-675,-62,11,-1,-29,163
1.1670000000001437,-762,-2752,7486,-663,-105,-61,-1,-18,173
1.1790000000000873,-596,-2540,7436,-772,-132,-151,4,-30,181
1.2010000000000218,-1014,-2858,7102,-946,123,-214,-4,-25,181
1.2130000000001928,-984,-3302,7766,-880,-124,-254,0,-37,172
1.2350000000001273,-1666,-3458,8852,-817,-441,-344,3,-41,168
1.2570000000000618,-1732,-3406,8202,-575,-209,-200,-4,-37,179
1.2690000000000055,-1706,-3256,7562,-610,-83,-175,-6,-39,180
1.2910000000001673,-1308,-3166,6622,-709,-121,-143,-1,-46,178
1.303000000000111,-1570,-3396,6880,-838,172,-122,-14,-55,179
1.3250000000000455,-1720,-3724,7958,-903,37,-80,-7,-50,184
1.336999999999989,-1948,-3896,7702,-717,206,-13,-4,-55,179
1.359000000000151,-1030,-3844,7302,-703,23,87,-12,-68,186
1.3810000000000855,-872,-3848,6466,-793,-204,-34,-15,-49,178
1.393000000000029,-582,-4144,7030,-998,-238,-124,-10,-69,180
1.415000000000191,-650,-4478,7112,-1046,-146,-158,-1,-77,178
1.4270000000001346,-812,-4656,6914,-1063,-120,-170,-13,-74,178
1.4490000000000691,806,-2768,9424,-1001,-931,-195,-6,-72,175
1.4610000000000127,-616,-4542,6138,-1166,-1079,-270,-13,-72,173
1.4830000000001746,-838,-4750,6604,-1207,-781,-401,-20,-79,178
1.4950000000001182,-1534,-5330,7104,-1280,-579,-214,-23,-92,178
1.5170000000000528,-986,-5150,6214,-1148,-165,-140,-26,-96,179
1.5389999999999873,-502,-5268,5824,-1292,40,-69,-20,-102,173
1.5510000000001583,-20,-5282,5792,-1421,-357,-44,-23,-102,173
1.5730000000000928,112,-5350,4976,-1517,-284,-111,-26,-118,174
1.5850000000000364,-926,-5990,6432,-1594,-657,-221,-30,-130,170
1.6070000000001983,-796,-5938,5738,-1547,-699,-15,-36,-136,172
1.6190000000001419,-364,-6176,5286,-1568,-755,39,-38,-136,160
1.6410000000000764,-350,-6510,5298,-1741,-995,113,-38,-134,155
1.663000000000011,-264,-6718,5822,-1619,-676,184,-37,-158,161
1.675000000000182,174,-6738,5454,-1594,-411,185,-48,-151,150
1.6970000000001164,248,-6956,4524,-1555,-384,161,-52,-165,151
1.70900000000006,578,-6906,3944,-1674,-590,105,-53,-169,145
1.7309999999999945,-124,-7092,4484,-1712,-506,86,-56,-178,144
1.7530000000001564,-428,-7536,4104,-1678,-143,247,-61,-186,137
1.7650000000001,-140,-7538,4592,-1711,-332,208,-58,-177,138
1.7870000000000346,252,-7650,4120,-1617,105,284,-62,-187,138
1.7990000000002055,-322,-8062,4054,-1500,394,222,-53,-199,129
1.82100000000014,452,-7960,3380,-1430,253,199,-44,-206,125
1.8330000000000837,-2,-8064,3102,-1440,-92,127,-53,-212,109
1.8550000000000182,84,-8120,3282,-1443,-414,93,-59,-208,113
1.8670000000001892,-432,-8202,3042,-1374,-40,171,-48,-217,114
1.8890000000001237,-236,-8190,3128,-1334,-122,160,-59,-229,108
1.9010000000000673,74,-8034,1994,-1231,-326,119,-50,-230,107
1.9230000000000018,-428,-8306,3054,-1185,-154,81,-58,-232,105
1.9450000000001637,-58,-8412,2552,-1141,-158,50,-52,-231,111
1.9570000000001073,64,-8346,1754,-1056,-82,80,-46,-240,95
1.9790000000000418,-308,-8502,2024,-1006,-219,4,-61,-231,101
1.9909999999999854,-314,-8512,1762,-930,-140,28,-53,-245,83
2.0130000000001473,-88,-8442,1942,-879,-138,82,-56,-241,94
2.025000000000091,64,-8438,1250,-811,-168,77,-53,-260,76
2.0470000000000255,66,-8512,2050,-821,-313,49,-66,-241,75
2.0690000000001874,106,-8510,1762,-657,75,20,-64,-261,68
2.081000000000131,356,-8472,706,-625,-18,-21,-61,-256,72
2.1030000000000655,-104,-8648,816,-594,-151,-83,-60,-258,69
2.115000000000009,78,-8624,986,-642,-419,-109,-62,-265,62
2.137000000000171,-160,-8668,1658,-490,-224,-85,-64,-249,65
2.1490000000001146,-256,-8730,1382,-332,-70,-92,-58,-265,50
2.171000000000049,258,-8524,1042,-270,-173,-59,-58,-273,64
2.1929999999999836,214,-8512,414,-217,-390,-88,-69,-267,53
2.2050000000001546,384,-8198,656,-272,-597,-201,-72,-268,71
2.227000000000089,-172,-8452,822,-248,-757,-225,-69,-264,51
2.2390000000000327,-392,-8534,1172,-226,-1409,-179,-64,-267,49
2.2610000000001946,-350,-8408,1232,-56,-1788,-102,-72,-250,38
2.2730000000001382,-438,-8036,-618,24,-1976,-51,-78,-269,46
2.2950000000000728,42,-8038,1720,-308,-3107,-65,-79,-258,45
2.3070000000000164,48,-8460,440,-132,-2353,5,-88,-256,46
2.3290000000001783,-16,-8258,404,-258,-2504,-24,-83,-261,37
2.3510000000001128,-388,-8014,1128,-156,-2801,16,-85,-256,25
2.3630000000000564,-1070,-8516,592,-199,-2391,122,-100,-261,20
2.379998000000114,976,-8016,-774,-447,-2991,238,-104,-265,19
2.4020000000000437,348,-8402,294,-413,-3029,269,-108,-263,19
2.4139999999999873,890,-8468,1536,-310,-3411,125,-105,-269,10
2.436000000000149,838,-8680,1256,-151,-3847,41,-111,-278,-4
2.4580000000000837,596,-8490,-322,-86,-4702,28,-111,-265,-11
2.4700000000000273,-148,-8422,-996,-309,-5848,173,-124,-269,-22
2.492000000000189,562,-8134,-1794,-451,-7111,313,-127,-264,-51
2.504000000000133,-220,-8372,954,-782,-5778,106,-116,-258,-66
2.5260000000000673,604,-8552,-494,-648,-5434,254,-112,-269,-80
2.538000000000011,500,-8884,1040,-794,-5646,194,-113,-265,-81
2.560000000000173,198,-8784,932,-610,-4343,86,-106,-268,-105
2.5820000000001073,-664,-9014,-1918,-326,-5388,357,-100,-272,-108
2.594000000000051,932,-8530,-1884,-693,-8028,564,-106,-265,-131
2.6159999999999854,258,-8480,88,-753,-6935,469,-88,-269,-151
2.6280000000001564,-1774,-8674,-2054,-608,-7388,661,-56,-274,-154
2.650000000000091,-1372,-8374,396,-930,-6137,580,-38,-265,-167
2.6620000000000346,-1174,-8722,1506,-396,-6557,815,-41,-263,-181
2.6840000000001965,-22,-8506,-128,-632,-5048,450,-30,-269,-192
2.69600000000014,-188,-8164,-280,-247,-4976,451,6,-267,-185
2.7180000000000746,-956,-7848,58,-446,-3824,69,12,-265,-193
2.740000000000009,-2558,-8052,98,-355,-3401,146,10,-259,-192
2.75200000000018,-3702,-8046,2306,-199,-4395,649,20,-261,-197
2.7740000000001146,-1040,-7984,-298,-221,-2953,631,39,-269,-197
2.786000000000058,-696,-8018,814,-79,-2776,462,42,-264,-192
2.8079999999999927,-1332,-8134,-500,-3,-2335,341,53,-263,-186
2.8200000000001637,-1378,-7916,608,-183,-1948,181,58,-258,-184
2.8420000000000982,-2298,-7888,632,-208,-2120,257,71,-246,-175
2.854000000000042,-1970,-7654,734,-141,-1737,175,66,-251,-187
2.8760000000002037,-2784,-8310,1586,348,-1508,389,77,-250,-184
2.8980000000001382,-1090,-7772,1534,-197,-1708,110,88,-249,-170
2.910000000000082,-1524,-7808,86,301,-851,-72,88,-261,-178
2.9320000000000164,-1786,-7892,892,43,-1131,-66,89,-258,-164
2.9440000000001874,-2196,-7930,160,210,-704,-189,98,-259,-180
2.966000000000122,-4412,-9288,6564,759,-2698,76,99,-248,-160
2.9780000000000655,-1824,-8140,426,-47,-1566,-93,98,-261,-158
3.0,-2380,-8132,1406,25,-1642,178,92,-258,-167
3.022000000000162,-3240,-8912,2290,380,-1657,431,98,-264,-147
3.0340000000001055,-1132,-8308,648,-365,-751,45,106,-260,-157
3.05600000000004,-1966,-8188,1340,-213,-64,-119,112,-259,-151
3.0679999999999836,-2850,-8126,1056,-59,-16,-207,101,-258,-157
3.0900000000001455,-2702,-8036,1156,49,-331,-20,111,-258,-153
3.102000000000089,-1804,-8158,944,95,-369,43,112,-259,-156
3.1240000000000236,-1912,-8260,862,49,-239,-50,112,-264,-154
3.1360000000001946,-1812,-8070,1090,49,-40,-49,111,-265,-145
3.158000000000129,-1682,-8054,724,5,426,-108,106,-260,-160
3.1800000000000637,-1978,-7848,1406,20,806,-144,113,-253,-160
3.1920000000000073,-1826,-7634,1772,93,1443,-205,111,-250,-150
3.214000000000169,-1454,-7626,2468,198,2453,-196,105,-274,-154
3.2260000000001128,-1758,-7866,1180,337,3362,-397,100,-261,-163
3.2480000000000473,-2420,-8120,976,269,3345,-275,98,-267,-163
3.259999999999991,-1140,-7626,2564,452,4737,-390,79,-268,-164
3.282000000000153,-1858,-8382,-458,755,5391,-373,76,-267,-173
3.3040000000000873,-826,-8348,476,543,5882,-350,65,-263,-179
3.316000000000031,-2088,-8514,-1456,596,5932,-351,54,-272,-175
3.338000000000193,-2186,-8220,384,351,5024,-212,23,-272,-170
3.3500000000001364,-1234,-8274,696,487,5855,-92,14,-265,-181
3.372000000000071,-766,-8210,-604,430,6421,-140,4,-260,-181
3.3840000000000146,-552,-8348,-88,358,5986,-146,2,-273,-179
3.4060000000001764,-1120,-8430,-18,412,6429,-272,-21,-268,-176
3.428000000000111,-1122,-8376,196,429,7111,-215,-33,-268,-162
3.4400000000000546,-1048,-8326,-1828,519,6365,-120,-44,-274,-166
3.461999999999989,-1126,-8412,-246,303,6548,-60,-50,-273,-153
3.47400000000016,-394,-8516,220,377,7450,-6,-72,-278,-138
3.4960000000000946,162,-8474,-1600,421,7127,30,-77,-278,-133
3.508000000000038,-650,-8242,-1630,282,6292,-97,-78,-272,-125
3.5300000000002,-1118,-8424,-2358,47,5633,68,-90,-267,-106
3.5420000000001437,-302,-8122,-3168,254,3718,57,-102,-287,-82
3.564000000000078,-692,-8326,-642,5,3100,50,-101,-278,-76
3.5860000000000127,-620,-8430,468,159,3774,102,-102,-282,-75
3.5980000000001837,-90,-8186,-1680,376,3845,182,-102,-284,-60
3.6200000000001182,-494,-8144,-1746,192,3663,111,-96,-286,-52
3.632000000000062,-828,-8504,322,199,3808,151,-98,-297,-44
3.6539999999999964,60,-8374,-336,341,4444,276,-94,-296,-40
3.6660000000001673,384,-8068,-1322,371,4430,154,-99,-283,-23
3.688000000000102,190,-8150,-2292,227,4459,160,-90,-289,-13
3.7100000000000364,-200,-8428,-1574,122,4014,64,-84,-283,-9
3.7220000000002074,-172,-8442,-1172,104,3713,91,-78,-289,3
3.744000000000142,-364,-8672,102,192,3448,179,-75,-286,4
3.7560000000000855,-652,-8728,308,292,4375,305,-62,-288,19
3.77800000000002,-266,-8762,24,439,6047,508,-65,-286,26
3.790000000000191,1222,-8190,-1674,422,6129,557,-62,-273,23
3.8120000000001255,2008,-7720,-2898,213,3942,269,-48,-288,33
3.83400000000006,146,-8032,-1326,29,2381,0,-31,-280,43
3.8460000000000036,-566,-8278,-354,-35,3274,146,-16,-291,38
3.8680000000001655,-742,-8358,-64,-76,4422,393,-21,-280,40
3.880000000000109,-44,-8472,-986,16,4868,623,-13,-277,49
3.9020000000000437,484,-8234,-830,-44,4461,561,8,-274,49
3.9139999999999873,960,-8112,-858,-23,3646,546,10,-287,41
3.936000000000149,-140,-8540,0,90,3219,341,16,-288,54
3.9480000000000928,-902,-8576,-76,98,3998,647,16,-278,52
3.9700000000000273,-548,-8612,-364,124,4613,1001,48,-275,45
3.992000000000189,896,-8336,-1122,106,4339,907,58,-286,40
4.004000000000133,-26,-8434,-130,167,3891,615,58,-286,35
4.026000000000067,110,-8376,-934,116,3868,766,65,-268,38
4.038000000000011,476,-8158,-268,104,3786,579,85,-279,15
4.060000000000173,-1158,-8674,346,-47,4760,650,96,-283,16
4.072000000000116,-1328,-8586,-990,-144,6392,1142,95,-277,17
4.094000000000051,940,-7970,-68,-196,4937,1037,104,-270,2
4.1159999999999854,466,-8030,-588,-67,4417,741,129,-279,-17
4.128000000000156,1074,-7790,-626,16,3599,452,122,-261,-13
4.150000000000091,102,-8272,-274,176,2805,58,121,-263,-28
4.162000000000035,-1864,-8814,-782,-1,4124,296,131,-264,-32
4.1840000000001965,-2494,-9200,1250,-219,7245,848,127,-269,-44
4.19600000000014,-1194,-8958,-1410,-587,10161,1779,146,-254,-70
4.218000000000075,666,-8420,-698,-565,9527,1755,147,-255,-86
4.230285000000094,752,-8152,-2200,-584,7839,1410,142,-253,-112
4.253000000000156,596,-7792,-926,-491,6305,1098,130,-245,-143
4.275000000000091,660,-7682,-1034,-284,4475,793,135,-237,-160
4.287000000000035,-570,-8072,-710,-175,4581,574,123,-240,-164
4.3090000000001965,998,-7696,-2506,-230,3617,577,118,-248,-179
4.32100000000014,-990,-7938,-1842,18,2508,442,100,-246,-192
4.343000000000075,516,-7678,-3294,67,986,187,119,-234,-190
4.355000000000018,-92,-8016,-2148,60,-362,99,92,-235,-200
4.381998000000067,-422,-8214,-1964,168,-1549,-10,94,-243,-193
4.3940000000000055,-722,-8286,196,110,-747,122,108,-240,-203
4.416000000000167,-318,-7916,-1748,199,-804,48,105,-239,-192
4.428000000000111,-194,-8048,-1652,340,-1005,60,113,-235,-191
4.4500000000000455,-266,-8296,-1528,253,-1882,3,117,-236,-185
4.461999999999989,-302,-8058,-3244,39,-2450,-221,111,-240,-186
4.484000000000151,-1330,-8458,10,-18,-1378,-82,118,-240,-164
4.496000000000095,-694,-8136,-1750,241,-1636,-85,125,-243,-172
4.518000000000029,-958,-8144,-802,275,-1466,-4,127,-241,-161
4.530285000000049,-730,-8014,-2926,275,-1661,-62,128,-243,-167
4.553000000000111,-886,-8122,-2936,81,-2777,-145,122,-239,-163
4.5750000000000455,-764,-8204,-3120,-162,-4483,-165,140,-243,-150
4.586999999999989,-766,-8430,-956,-234,-5805,-65,141,-249,-147
4.609000000000151,-440,-8110,-924,30,-6709,-71,145,-245,-124
4.621000000000095,-568,-8136,-1386,103,-8037,-126,158,-241,-115
4.643000000000029,-690,-8202,-3182,-97,-10808,-141,159,-250,-90
4.6550000000002,-1434,-8878,2924,-130,-10388,-74,151,-244,-70
4.677000000000135,-1118,-8252,-16,134,-6599,141,158,-249,-29
4.689000000000078,-790,-8108,750,170,-4862,14,157,-250,-9
4.711000000000013,-1242,-8082,202,74,-5080,-85,144,-231,5
4.733000000000175,-1770,-8272,188,139,-4830,-44,150,-253,16
4.745000000000118,-448,-8252,772,77,-5883,-18,129,-251,41
4.767000000000053,-930,-7842,1596,362,-5535,-210,125,-248,54
4.778999999999996,-1360,-8192,950,260,-4888,-126,107,-241,56
4.801000000000158,-1476,-8168,1542,243,-4021,-120,100,-246,65
4.813000000000102,-1558,-8080,990,161,-3899,-69,82,-243,76
4.835000000000036,-1404,-8284,992,194,-3713,64,69,-234,89
4.857000000000198,-1334,-8342,1958,228,-4084,189,69,-244,82
4.869000000000142,-284,-8192,1564,407,-3875,148,64,-244,99
4.891000000000076,-1078,-8136,944,388,-4210,149,44,-236,96
4.90300000000002,-772,-8100,2546,367,-5214,221,27,-239,94
4.925000000000182,-1232,-8212,2158,466,-3694,342,16,-237,100
4.9370000000001255,-180,-8012,2618,501,-4304,433,3,-234,111
4.95900000000006,72,-7936,1620,459,-3665,325,-12,-237,112
4.9809999999999945,172,-7816,1958,310,-3994,276,-21,-227,114
4.9930000000001655,-534,-7868,2072,271,-3384,268,-29,-232,109
5.0150000000001,-202,-7844,2666,349,-2946,353,-25,-234,103
5.027000000000044,42,-7910,2760,319,-3572,375,-44,-236,113
5.0490000000002055,266,-7906,1962,419,-3117,273,-56,-221,101
5.061000000000149,512,-7846,2380,361,-3414,242,-64,-229,99
5.083000000000084,-74,-8160,2694,371,-3280,217,-73,-231,101
5.095000000000027,244,-8008,2718,366,-3856,364,-79,-220,88
5.117000000000189,572,-7890,2754,493,-3592,346,-92,-220,83
5.139000000000124,830,-7802,3528,543,-3811,332,-100,-221,75
5.151000000000067,1032,-7810,3816,744,-2437,161,-107,-221,82
5.173000000000002,704,-7908,1392,581,-1808,83,-118,-232,66
5.185000000000173,1274,-7712,3046,344,-1274,56,-111,-225,69
5.207000000000107,1220,-7756,3976,399,-38,-75,-128,-225,59
5.219000000000051,722,-7888,2490,464,208,-92,-121,-212,57
5.2409999999999854,1212,-7788,2990,407,297,-77,-107,-218,70
5.263000000000147,1704,-7604,3024,395,216,-192,-123,-217,64
5.275000000000091,1744,-7456,2816,427,909,-431,-125,-212,71
5.2970000000000255,826,-7678,2374,306,951,-551,-122,-206,72
5.3090000000001965,478,-7582,4456,255,335,-420,-122,-216,75
5.331000000000131,564,-7600,5276,584,1032,-391,-111,-217,81
5.343000000000075,692,-7546,4162,764,1873,-366,-119,-201,87
5.365000000000009,1024,-7434,2122,763,2165,-326,-118,-212,83
5.377285000000029,992,-7308,3008,538,1664,-332,-104,-205,98
5.399000000000115,822,-7424,5054,595,1831,-280,-118,-199,98
5.421000000000049,564,-7458,4784,781,1431,-195,-90,-213,101
5.432999999999993,522,-7354,5542,905,744,-70,-88,-196,106
5.455000000000155,516,-7248,4576,1068,732,-159,-99,-184,112
5.467000000000098,656,-7008,5060,1129,1197,-169,-87,-184,117
5.489000000000033,328,-7050,5068,1165,1000,-136,-89,-182,121
5.501000000000204,8,-6880,5478,1237,499,-83,-87,-187,117
5.523000000000138,-290,-7008,5438,1363,624,-12,-92,-169,131
5.545000000000073,-256,-6960,4224,1307,652,70,-79,-187,136
5.557000000000016,-160,-6764,6154,1228,60,205,-79,-159,133
5.579000000000178,452,-6668,6574,1416,300,269,-76,-158,142
5.591000000000122,686,-6676,7128,1525,261,192,-78,-158,147
5.613000000000056,60,-6756,5022,1691,240,-17,-73,-145,142
5.625,484,-6502,6016,1703,46,61,-78,-153,154
5.647000000000162,228,-6282,5838,1483,10,15,-69,-140,151
5.669000000000096,232,-6052,6872,1391,-40,29,-72,-129,150
5.68100000000004,346,-5826,6002,1491,169,2,-70,-126,150
5.703000000000202,890,-5602,7282,1590,-124,18,-66,-125,156
5.7150000000001455,344,-5360,7208,1679,-179,-315,-69,-117,158
5.73700000000008,12,-4906,6304,1407,177,-146,-67,-91,162
5.749000000000024,822,-4838,6660,1448,341,-259,-71,-97,156
5.7710000000001855,-654,-4554,5520,1341,-83,-303,-56,-92,158
5.783000000000129,-38,-4202,7266,1147,-352,-234,-73,-97,158
5.805000000000064,-230,-4184,6690,1183,67,-216,-77,-75,162
5.826999999999998,-534,-4094,7762,1122,312,-214,-69,-74,163
5.839000000000169,368,-3714,7146,1236,101,-59,-64,-72,163
5.861000000000104,1124,-3562,6514,1181,-154,-127,-58,-63,162
5.873000000000047,-148,-3480,7348,862,-149,-383,-71,-69,156
5.894999999999982,260,-3286,7372,877,-111,-221,-70,-53,169
5.907000000000153,-130,-3356,9346,918,33,-270,-66,-49,161
5.929000000000087,-554,-3206,8260,1163,488,-220,-73,-46,154
5.951000000000022,164,-3044,7866,1238,187,-149,-60,-48,169
5.963000000000193,712,-2808,7876,1149,284,-226,-56,-49,166
5.985000000000127,812,-2578,8788,1244,392,-299,-66,-34,158
5.997000000000071,-138,-2398,5512,1049,289,-418,-53,-22,162
6.0190000000000055,-48,-2208,7132,832,-209,-342,-61,-21,151
6.031000000000176,-140,-2082,8030,762,-494,-295,-61,-24,166
6.053000000000111,-386,-2174,8442,782,-722,-198,-59,-21,161
6.0750000000000455,152,-2070,7844,952,-1160,-75,-60,-15,160
6.086999999999989,658,-1790,8110,835,-1278,-102,-56,-6,163
6.109000000000151,1030,-1564,6674,665,-641,-159,-77,0,150
6.121000000000095,956,-1618,8288,484,-403,-180,-62,-2,150
6.143000000000029,274,-1688,9962,530,-358,-166,-70,0,157
6.1550000000002,1222,-1644,8722,756,-228,-49,-81,11,149
6.177000000000135,896,-1372,8006,647,42,-252,-76,13,149
6.189000000000078,586,-1172,6876,528,-108,-244,-71,13,147
6.211000000000013,160,-1160,8332,326,213,-252,-72,25,148
6.233000000000175,528,-1060,8256,441,366,-100,-81,21,147
6.245000000000118,984,-976,7118,369,602,-107,-78,13,149
6.267000000000053,1076,-844,7658,155,275,-98,-73,11,142
6.278999999999996,974,-802,8962,230,54,-131,-70,15,150
6.301000000000158,466,-792,8154,240,-87,-133,-69,34,154
6.313000000000102,710,-698,8338,260,186,-113,-66,13,147
6.335000000000036,602,-682,8478,195,370,-70,-64,16,147
6.357000000000198,550,-694,8754,185,178,-86,-67,17,157
6.369000000000142,490,-652,8946,246,125,-98,-61,29,144
6.3859980000002,278,-606,9084,407,55,-103,-61,18,149
6.408000000000129,380,-514,8256,575,121,-3,-66,31,137
6.420000000000073,-76,-330,8660,390,111,-15,-62,27,145
6.442000000000007,522,-226,8954,484,192,-16,-55,37,153
6.454000000000178,726,-290,9998,738,180,58,-62,35,143
6.476000000000113,366,-376,10292,890,143,21,-59,39,151
6.498000000000047,776,-110,9828,1233,-275,2,-66,24,144
6.509999999999991,486,98,9198,1419,-376,48,-56,49,137
6.532000000000153,480,712,8208,1485,-98,16,-62,48,141
6.544000000000096,-426,630,11238,1471,-88,75,-64,56,125
6.566000000000031,858,930,8520,1923,-448,137,-59,67,132
6.578000000000202,810,1290,8272,2009,-469,108,-60,58,121
6.600000000000136,154,1616,7906,1739,-339,8,-65,75,117
6.622000000000071,282,1694,7824,1793,-38,90,-70,78,114
6.6340000000000146,498,1956,9020,1595,420,13,-66,79,115
6.656000000000176,238,1622,7802,1814,361,99,-65,86,105
6.66800000000012,796,1996,8706,2140,174,66,-62,91,105
6.690000000000055,670,2294,8084,2086,101,80,-72,101,100
6.701999999999998,534,2640,6786,2159,-58,94,-75,108,93
6.72400000000016,1244,3104,7214,2130,510,194,-59,115,77
6.736000000000104,-218,2994,7880,1779,419,57,-66,122,75
6.758000000000038,1556,3256,7742,2184,306,183,-67,126,62
6.7800000000002,690,3628,7256,2099,236,89,-64,125,63
6.792000000000144,552,3756,5890,1968,-10,-60,-66,132,56
6.814000000000078,1034,4190,7116,2131,-204,-13,-54,132,46
6.826000000000022,-342,4292,6276,1884,-164,-120,-69,137,37
6.848000000000184,240,4608,6408,1987,-278,-41,-60,146,31
6.860000000000127,1282,5654,6414,2155,-344,-40,-56,140,25
6.882000000000062,790,5264,3822,1414,-721,17,-60,154,14
6.903999999999996,-1168,5260,6980,1753,-302,-126,-56,160,8
6.916000000000167,1154,5910,6362,1988,-262,54,-56,158,13
6.938000000000102,108,6002,4670,1610,-677,-107,-64,165,-5
6.9500000000000455,-494,6072,5184,1625,-1635,-7,-58,164,-16
6.972000000000207,-590,5968,7446,1886,-1213,372,-64,163,-22
6.984000000000151,2312,6392,5622,2050,-1206,132,-55,164,-35
7.0060000000000855,-692,5872,7690,2223,-1880,61,-67,167,-43
7.02800000000002,2186,6964,1766,2649,-1399,-103,-60,159,-64
7.040000000000191,236,7186,-198,1831,-509,-82,-59,168,-72
7.0620000000001255,1046,7090,4992,1680,-183,86,-66,160,-89
7.074000000000069,1552,6888,2586,1517,-68,110,-82,162,-95
7.096000000000004,1630,7102,638,1595,170,-18,-67,154,-95
7.108000000000175,850,7122,1706,1248,-86,124,-56,155,-99
7.130000000000109,1156,7160,1372,1102,148,95,-61,153,-111
7.142000000000053,1760,7256,1562,926,155,2,-71,155,-120
7.163999999999987,500,7138,3088,1053,397,-3,-66,140,-115
7.186000000000149,2104,7504,-26,1059,346,-116,-55,151,-117
7.198000000000093,720,7506,1992,1012,7,-102,-71,150,-125
7.220000000000027,808,7530,918,860,-227,-23,-61,143,-135
7.232000000000198,190,7480,1274,843,-144,-34,-65,141,-136
7.254000000000133,1796,7570,230,767,-275,134,-73,137,-132
7.266000000000076,856,7478,2016,420,-230,-44,-65,144,-145
7.288000000000011,2286,7684,1452,801,166,76,-62,136,-143
7.310000000000173,2082,7664,-1136,550,239,-192,-70,146,-143
7.322000000000116,1630,7838,-394,463,26,-254,-71,135,-142
7.344000000000051,770,7748,-320,201,89,-214,-73,148,-151
7.3559999999999945,282,7636,92,127,72,-145,-67,136,-148
7.378000000000156,492,7716,482,143,37,-112,-66,143,-149
7.3900000000001,980,8156,-1014,212,-285,38,-67,141,-153
7.412000000000035,926,8014,352,-278,-170,64,-66,130,-154
7.4240000000002055,1378,7936,1430,-106,-521,42,-53,136,-155
7.44600000000014,1550,8102,1400,2,-691,-36,-61,127,-151
7.468000000000075,726,8040,1228,-1,-165,-18,-65,134,-153
7.480000000000018,1216,7958,1308,-5,68,8,-61,143,-154
7.50200000000018,1548,8004,524,37,-206,11,-64,135,-154
7.514000000000124,1010,8030,1454,-86,150,-34,-67,141,-157
7.536000000000058,1436,7958,1108,-15,506,-23,-69,132,-154
7.548000000000002,1334,7948,1692,75,992,-154,-69,135,-142
7.570000000000164,1240,7918,904,191,1815,-302,-62,139,-148
7.592000000000098,824,7904,2480,180,2898,-382,-65,141,-148
7.604000000000042,1046,7828,3750,504,6425,-281,-71,140,-151
7.626000000000204,2382,7672,1940,761,10015,-605,-65,144,-153
7.638000000000147,1956,8026,-3048,452,8549,-509,-93,137,-120
7.660000000000082,-854,7714,-168,-506,6080,245,-98,127,-111
7.682000000000016,626,7718,1504,39,4588,147,-96,136,-86
7.694000000000187,250,8044,224,-34,5029,118,-102,127,-89
7.716000000000122,-46,7978,2778,-171,7239,268,-106,131,-66
7.7280000000000655,1536,8076,-726,-446,7194,495,-101,144,-52
7.75,1152,7900,1050,-590,5285,-20,-108,136,-40
7.762000000000171,-448,7808,1840,-188,4278,-127,-108,134,-19
7.7840000000001055,232,8064,768,-363,5280,53,-104,144,-7
7.796000000000049,984,8186,2086,-204,5389,-330,-105,132,3
7.817999999999984,-1498,7646,1476,-264,5276,-249,-89,131,4
7.8400000000001455,-1804,7618,1270,-82,5901,99,-94,131,23
7.852000000000089,608,8206,702,47,3706,21,-72,136,38
7.874000000000024,-1558,7802,1934,17,4431,-315,-61,130,51
7.886000000000195,-854,7920,1224,-240,5469,77,-58,129,50
7.908000000000129,-1160,7768,1930,-98,6412,-31,-39,130,51
7.920000000000073,-1630,7758,426,-180,7228,200,-29,126,66
7.942000000000007,-424,8052,816,-156,7022,224,-20,145,75
7.964000000000169,-1502,8090,2290,-72,6486,85,8,132,75
7.976000000000113,870,8454,836,-18,5737,-242,13,130,84
7.998000000000047,-1846,7522,-456,-245,7487,-515,30,130,72
8.009999999999991,-2066,7522,746,-722,8761,-80,42,143,77
8.032000000000153,-984,7660,1844,-164,9224,361,67,126,64
8.044000000000096,-1594,8132,-2886,-11,7852,523,78,130,60
8.066000000000031,-126,8276,-1456,423,3158,525,105,140,44
8.078000000000202,-628,8032,440,237,1878,74,105,137,37
8.100000000000136,-616,7836,-2692,148,759,-8,110,145,34
8.122000000000071,-1208,7910,-440,-134,651,-59,107,137,34
8.134000000000015,-772,8066,-808,-76,1465,-128,115,135,37
8.156000000000176,-2560,7904,-4138,-331,3741,55,107,137,22
8.16800000000012,-994,7834,614,-63,3212,206,112,140,22
8.190000000000055,-1018,7770,-1008,-260,3003,309,125,139,26
8.201999999999998,-728,8178,-1432,-407,2707,148,130,136,0
8.22400000000016,-388,8102,198,-26,1900,141,127,135,3
8.236000000000104,-214,8030,-1430,-165,1895,48,122,145,5
8.258000000000038,-822,7828,-4958,-371,3364,50,130,131,-7
8.2800000000002,-798,7892,-620,-175,1659,122,129,127,-3
8.292000000000144,-392,7894,-6234,-281,3343,69,136,130,-15
8.314000000000078,-1498,7854,122,-339,2181,259,141,137,-10
8.326000000000022,-620,8058,-406,-308,1785,309,133,139,-11
8.348000000000184,674,7862,10152,-237,3229,223,139,145,-27
8.360000000000127,-330,7700,-456,-336,2444,237,129,140,-44
8.386998000000176,-170,8104,-2140,-648,4280,77,136,127,-41
8.399000000000115,-220,8070,-678,-668,4366,213,138,136,-50
8.42100000000005,-464,8008,-666,-379,3006,191,140,141,-64
8.432999999999993,-556,8142,-1224,-317,2320,323,144,137,-63
8.455000000000155,-18,7996,-478,-318,3501,388,147,144,-69
8.467000000000098,194,7950,-1262,-426,3147,392,133,136,-74
8.489000000000033,1016,8208,326,-293,1109,281,131,135,-72
8.501000000000204,112,7792,-2056,1,1758,175,134,143,-84
8.523000000000138,-610,7826,-472,-285,-121,491,127,143,-87
8.545000000000073,1562,8586,220,-94,-113,309,113,149,-76
8.557000000000016,618,8026,-582,36,-274,19,134,137,-87
8.579000000000178,1490,8210,-626,-143,-517,-98,127,145,-80
8.591000000000122,1094,8166,-34,-182,-734,-454,125,146,-83
8.613000000000056,-1210,7584,116,-156,-624,-262,125,141,-76
8.625,-614,8014,-144,-173,-900,230,125,136,-74
8.647000000000162,390,8066,-176,-221,-1038,268,130,146,-74
8.669000000000096,1836,8186,-74,-219,-1016,145,124,140,-63
8.68100000000004,2190,8580,-828,-288,-1323,-444,122,145,-65
8.703000000000202,190,8296,244,-290,-2575,-965,133,136,-64
8.715000000000146,-1622,7478,1034,18,-3393,-639,136,135,-56
8.73700000000008,-1310,7666,-468,24,-3826,125,135,131,-50
8.749000000000024,1598,8198,-150,-65,-3414,394,134,145,-41
8.771000000000186,812,8420,1982,-317,-5584,-75,129,150,-37
8.78300000000013,1030,8386,-820,-371,-4087,-392,130,136,-23
8.805000000000064,-956,7708,-230,-499,-3950,-356,130,136,-16
8.826999999999998,-480,7814,1182,-286,-4339,87,121,141,-4
8.83900000000017,192,7910,-632,-103,-4825,154,107,137,13
8.861000000000104,690,8094,224,-121,-5935,334,112,127,22
8.873000000000047,1532,8162,392,98,-5660,11,101,146,33
8.894999999999982,356,8078,-1246,-134,-5757,-102,98,140,22
8.907000000000153,602,7980,260,-297,-6005,162,88,132,51
8.929000000000087,-60,8238,-6,-428,-5720,48,75,141,62
8.951000000000022,1556,8206,240,-258,-5876,141,61,140,65
8.963000000000193,782,8042,-40,-223,-5289,4,50,139,64
8.985000000000127,570,7944,-440,-399,-5513,-19,26,139,62
8.997000000000071,1076,8326,508,-448,-5230,-37,24,146,64
9.019000000000005,868,8058,180,-452,-5668,-14,7,136,66
9.031000000000176,1458,8200,-1130,-620,-7041,-143,7,141,76
9.053000000000111,1954,7396,-1906,-859,-9222,-212,-19,131,71
9.065000000000055,1714,8580,6516,-481,-8985,-431,-43,131,69
9.086999999999989,-428,7838,702,-156,-5370,-21,-50,131,66
9.109000000000151,1160,8216,406,-389,-4623,-62,-65,124,45
9.121000000000095,-318,7776,840,-369,-4103,-65,-78,125,37
9.143000000000029,1250,8014,146,-198,-4530,111,-81,110,34
9.1550000000002,2578,8286,-138,-196,-5694,-274,-94,121,33
9.177000000000135,654,8146,666,-397,-6004,-489,-98,132,20
9.19900000000007,-78,7904,1568,-408,-5397,-267,-106,129,0
9.211000000000013,298,8000,2260,-145,-4252,-101,-108,129,-2
9.233000000000175,844,8066,672,-26,-3266,-61,-121,141,-16
9.245000000000118,1110,8002,490,-49,-3322,-148,-124,135,-20
9.267000000000053,1194,8010,448,-88,-3929,-237,-113,126,-38
9.278999999999996,558,7462,796,-129,-3199,-301,-121,136,-47
9.301000000000158,242,7796,820,-126,-2139,-474,-116,131,-47
9.313000000000102,132,7858,1564,-3,-1152,-351,-119,130,-56
9.335000000000036,796,7970,-1126,88,-1629,-422,-113,134,-69
9.357000000000198,1046,8120,-70,-206,-3304,-443,-107,135,-70
9.369000000000142,206,7938,94,-213,-3715,-455,-112,130,-68
9.391000000000076,-806,8024,724,-203,-3940,-390,-107,143,-82
9.40300000000002,-1314,7980,1354,-214,-3793,-31,-110,127,-94
9.425000000000182,-130,8254,1488,-19,-2859,110,-95,130,-103
9.437000000000126,352,8194,-340,14,-2856,222,-98,137,-101
9.45900000000006,472,8152,-806,-198,-3618,107,-96,141,-109
9.471000000000004,272,7978,-98,-315,-4347,256,-85,140,-120
9.493000000000166,-76,7874,980,-302,-5000,288,-98,135,-118
9.5150000000001,1712,8134,1084,-86,-5749,518,-95,127,-135
9.527000000000044,548,7976,1356,-95,-4893,354,-77,139,-133
9.549000000000206,1386,8208,-330,-73,-3875,272,-70,131,-162
9.56100000000015,780,7956,260,-272,-3592,293,-62,136,-164
9.583000000000084,332,7734,972,-285,-3444,297,-60,129,-160
9.595000000000027,366,7792,932,-31,-3925,510,-58,129,-167
9.61700000000019,956,7776,-1210,128,-5673,723,-46,134,-176
9.639000000000124,1508,7848,-558,222,-7887,986,-39,132,-178
9.651000000000067,2436,8128,-954,58,-6367,634,-31,136,-184
9.673000000000002,1514,8014,480,-243,-5242,491,-9,129,-186
9.685000000000173,2476,8534,2146,11,-2712,151,1,135,-192
9.707000000000107,1006,7560,-1244,129,-2445,87,18,132,-202
9.719000000000051,1030,7930,-688,-113,-3094,140,6,132,-194
9.740999999999985,224,7554,-2998,-258,-4333,283,18,127,-187
9.763000000000147,1860,7822,-1538,-710,-6120,456,36,126,-188
9.775000000000091,2358,8214,1028,-537,-6333,392,47,127,-185
9.797000000000025,2230,8562,2248,-265,-3180,-73,58,131,-186
9.809000000000196,1016,7948,-296,-110,-330,-395,64,145,-185
9.831000000000131,3392,7700,-738,-565,-1721,364,65,134,-169
9.843000000000075,-508,7480,-1080,-61,-673,-349,65,146,-179
9.865000000000009,816,7904,-1056,-409,-1785,76,69,137,-173
9.87700000000018,1352,7724,-966,-201,-3230,121,67,144,-167
9.899000000000115,1018,7966,-540,-206,-3539,40,87,144,-160
9.92100000000005,832,8120,220,-227,-2561,66,88,145,-161
9.932999999999993,112,7666,-1396,-121,-2318,171,90,148,-151
9.955000000000155,1476,7698,-2048,-121,-2616,235,88,145,-151
9.967000000000098,560,7818,-670,-125,-3945,432,99,136,-143
9.989000000000033,1046,7752,-1682,-101,-4758,497,105,137,-137
10.011000000000195,1384,8058,-220,-281,-3639,420,106,141,-131
10.023000000000138,1096,8486,836,-99,-2907,328,105,140,-125
10.045000000000073,396,7998,-184,12,-1213,108,111,149,-107
10.057000000000016,1542,8116,-850,-31,-196,-18,111,146,-114
10.079000000000178,890,7964,-972,132,-522,54,110,140,-108
10.091000000000122,198,7726,-878,157,-1021,55,122,145,-106
10.113000000000056,506,8192,180,-100,-319,127,116,151,-112
10.125,840,7850,-1158,184,-634,56,119,140,-113
10.147000000000162,778,7750,-1490,96,-1061,117,111,141,-117
10.169000000000096,628,8028,-570,203,-1616,349,117,143,-101
10.18100000000004,1176,7782,-1446,391,-1857,175,112,150,-115
10.203000000000202,1232,7804,-1702,350,-1991,179,110,150,-108
10.215000000000146,470,7762,-1846,320,-2536,270,118,139,-107
10.23700000000008,582,7926,-1510,310,-2476,295,115,148,-103
10.249000000000024,1986,8108,-1418,116,-1454,155,124,155,-99
10.271000000000186,152,7688,-1618,161,-1687,112,118,146,-98
10.28300000000013,380,7820,-1250,271,-1800,92,115,145,-99
10.305000000000064,364,7976,-1476,333,-1741,139,111,149,-93
10.326999999999998,562,7750,-2356,540,-2652,286,121,146,-83
10.33900000000017,1140,7560,-1634,384,-2051,234,119,148,-82
10.361000000000104,720,7710,-2542,297,-1468,71,115,140,-82
10.373000000000047,708,7864,-2160,256,-1243,10,124,135,-75
10.389998000000105,-164,7652,-1810,93,-520,-48,125,154,-78
10.412000000000035,628,7610,-2770,199,-1040,114,121,146,-66
10.424000000000206,-196,7560,-2064,273,-1667,185,123,144,-83
10.44600000000014,-96,7680,-2092,377,-2151,281,118,154,-71
10.468000000000075,958,8048,-2110,187,-1545,231,128,146,-69
10.480000000000018,1144,7798,-2720,-116,-225,-15,123,149,-66
10.50200000000018,-184,7816,-1638,-360,736,-349,118,151,-62
10.514000000000124,-52,7824,-1934,53,40,9,131,150,-56
10.536000000000058,-28,7556,-2800,157,-306,-63,131,153,-63
10.548000000000002,158,7854,-1942,59,-41,-7,124,143,-68
10.570000000000164,-92,7638,-2166,-5,286,-21,127,143,-72
10.592000000000098,662,7946,-1930,-166,880,-126,119,153,-70
10.604000000000042,18,7496,-2704,-286,1387,-262,123,146,-71
10.626000000000204,474,7990,-1754,-239,1424,-153,127,145,-63
10.638000000000147,-146,7770,-1500,-211,2032,-259,129,143,-65
10.660000000000082,1248,7886,-2004,-407,3008,-359,127,148,-68
10.672000000000025,1606,8012,-2208,-769,4569,-659,118,146,-81
10.694000000000187,-1126,7548,-494,-805,5770,-988,127,150,-80
10.716000000000122,948,8128,-602,-573,6357,-618,130,149,-93
10.728000000000065,642,7726,-1794,-278,6565,-641,123,144,-95
10.75,1918,8000,-1836,-770,8391,-689,119,135,-118
10.762000000000171,2464,8218,-20,-1074,11322,-925,122,148,-125
10.784000000000106,3480,7798,-2502,-1257,14791,-1524,106,144,-145
10.79600000000005,-1470,7236,-2386,-1097,10302,-952,83,148,-158
10.817999999999984,1846,8024,314,-651,8481,-366,53,144,-167
10.830000000000155,852,7802,696,-62,6732,-312,42,143,-168
10.85200000000009,790,7858,-1292,-19,4820,-107,36,139,-179
10.874000000000024,1036,7988,130,-220,4170,-203,25,143,-175
10.886000000000195,850,8034,336,-232,4477,-312,15,148,-170
10.90800000000013,632,8004,-254,-216,2865,-194,3,143,-168
10.920000000000073,1050,8272,1600,-236,3435,-419,-10,135,-163
10.942000000000007,14,7968,390,-106,2370,-415,3,148,-163
10.954000000000178,478,8174,1546,-167,2057,-294,-9,134,-160
10.976000000000113,88,8064,518,-71,2576,-374,-8,148,-166
10.998000000000047,-664,7854,-552,-305,2458,-290,-27,145,-161
11.009999999999991,-82,7940,-770,-424,788,-81,-21,141,-155
11.032000000000153,-312,7772,-142,-608,-186,-13,-23,155,-154
11.044000000000096,620,7838,-48,-699,-1413,109,-18,148,-170
11.066000000000031,636,8040,2376,-762,-1504,53,-32,153,-158
11.078000000000202,-198,7816,794,-641,-540,-40,-19,159,-143
11.100000000000136,-244,7842,-242,-844,-393,11,-15,148,-149
11.11200000000008,-354,7794,348,-1082,-105,119,-15,148,-144
11.134000000000015,706,7794,3624,-1049,-488,230,-15,153,-149
11.156000000000176,8,7648,2456,-729,-218,45,-14,159,-133
11.16800000000012,286,7836,958,-799,-365,52,-12,156,-145
11.190000000000055,172,7784,1330,-1085,-172,97,-18,145,-130
11.201999999999998,626,7612,2630,-1137,16,54,-14,169,-138
11.22400000000016,362,7570,3844,-1042,-367,76,-19,162,-121
11.236000000000104,1264,7840,3198,-750,50,-93,-10,165,-115
11.258000000000038,622,7756,1220,-880,317,-201,-20,165,-113
11.2800000000002,-974,7396,732,-1196,-86,37,-19,159,-114
11.292000000000144,574,7464,986,-1555,-213,199,-12,159,-109
11.314000000000078,1138,7338,5448,-1477,-254,292,-12,156,-93
11.326000000000022,1110,7206,5252,-1169,-144,101,-12,169,-95
11.348000000000184,514,7114,3812,-912,-309,-7,-18,170,-84
11.360000000000127,954,7288,1760,-1077,-159,-194,-21,167,-86
11.382000000000062,-420,7020,774,-1606,505,-251,-25,175,-70
11.403999999999996,-2004,6308,2422,-2273,632,136,-9,172,-71
11.416000000000167,744,6412,6826,-2002,543,302,-20,178,-56
11.438000000000102,702,6406,8112,-1395,54,434,-18,178,-51
11.450000000000045,1270,6298,4602,-1021,-293,221,-26,169,-40
11.472000000000207,340,6072,3946,-1252,-756,139,-29,177,-38
11.484000000000151,758,6228,3118,-1656,-241,51,-21,177,-33
11.506000000000085,-1270,5652,5592,-2062,713,131,-29,174,-23
11.518000000000029,1368,6026,9062,-1528,654,200,-19,167,-11
11.540000000000191,498,5836,7372,-825,555,165,-14,169,-7
11.562000000000126,546,5614,4170,-899,-455,56,-23,165,-8
11.57400000000007,-228,5408,4770,-1069,-645,169,-24,162,-2
11.596000000000004,280,5250,3498,-1380,33,6,-24,164,4
11.608000000000175,-176,5066,4858,-1689,445,212,-31,156,9
11.63000000000011,-256,4934,7104,-1681,738,214,-32,150,15
11.642000000000053,1892,4874,7682,-1147,631,337,-26,167,16
11.663999999999987,822,4684,6528,-1060,520,-2,-26,164,43
11.68600000000015,914,4450,4156,-1394,804,-242,-26,151,50
11.698000000000093,-1020,3904,2352,-1927,1759,-307,-29,149,35
11.720000000000027,-1946,3856,7572,-2591,1350,100,-23,150,37
11.732000000000198,1850,4826,12590,-1378,1101,251,-9,136,62
11.754000000000133,868,4208,8930,-636,531,48,-26,134,59
11.766000000000076,1142,3616,6444,-392,-634,-4,-18,145,56
11.788000000000011,-222,3174,5596,-840,-547,-277,-13,135,65
11.800291000000016,-596,3090,6140,-1290,-482,-163,-18,127,65
11.822000000000116,-1600,3050,9966,-1422,-226,-103,-13,125,82
11.844000000000051,-1148,3366,12410,-701,-126,62,-21,136,76
11.855999999999995,94,3282,8978,-78,-602,157,-27,127,87
11.878000000000156,-36,3024,6888,-207,-723,4,-24,126,74
11.8900000000001,-8,2972,6552,-439,-511,-69,-15,122,77
11.912000000000035,-468,2836,6502,-740,159,-70,-30,115,72
11.924000000000206,-922,2802,8316,-1201,26,16,-32,115,82
11.94600000000014,642,3016,11094,-499,-117,211,-29,131,90
11.968000000000075,742,2750,8366,-256,-253,128,-23,115,89
11.980000000000018,546,2546,7060,-258,-51,8,-24,126,93
12.00200000000018,-234,2342,6220,-433,155,-35,-26,118,95
12.014000000000124,-264,2256,5762,-782,309,162,-26,113,86
12.036000000000058,-534,2240,6508,-1238,228,343,-20,107,94
12.048000000000002,-412,2260,10336,-1105,100,610,-25,110,99
12.070000000000164,396,2300,10944,-630,371,605,-32,99,101
12.092000000000098,224,2056,8530,-350,814,361,-31,101,105
12.104000000000042,-16,1750,7052,-505,704,427,-33,103,109
12.126000000000204,-476,1760,7038,-815,1150,340,-30,99,111
12.138000000000147,-2300,1426,7436,-1084,1037,586,-30,94,106
12.160000000000082,-2232,1542,10582,-1037,815,1052,-21,91,114
12.172000000000025,-930,1486,10588,-533,746,1312,-30,97,125
12.194000000000187,-1072,1402,8828,-371,393,1381,-15,79,125
12.206000000000131,348,1418,7776,-374,301,1418,-24,88,121
12.228000000000065,724,1352,7102,-593,382,1056,-29,86,121
12.25,-538,1012,6752,-824,207,1032,-38,73,121
12.262000000000171,-1552,982,7492,-1029,-66,1161,-31,70,136
12.284000000000106,-3484,488,8986,-999,-732,1801,-36,70,133
12.29600000000005,-1284,578,11842,-728,-246,2427,-49,64,130
12.317999999999984,326,508,9064,-138,353,2202,-49,49,127
12.330000000000155,-268,226,6734,-365,311,2148,-54,62,135
12.35200000000009,-1444,240,6434,-650,294,2284,-56,54,135
12.374000000000024,-2380,-120,7452,-881,257,2782,-55,53,138
12.390998000000081,-1260,-386,6750,-826,951,3107,-77,32,153
12.40300000000002,34,-814,5374,-1114,439,3388,-67,30,153
12.425000000000182,340,-644,6400,-1555,-1256,3309,-71,24,139
12.437000000000126,-448,-1110,10448,-1263,-2664,3625,-81,13,147
12.45900000000006,2228,-962,12132,-663,-1680,3560,-94,2,145
12.471000000000004,5402,-546,10358,-162,385,2679,-101,-15,145
12.493000000000166,4420,-366,7654,-106,470,1499,-113,-20,148
12.5150000000001,254,-716,7588,-427,122,1077,-104,-25,143
12.527000000000044,66,-608,7292,-689,-600,1101,-118,-35,148
12.549000000000206,-2104,-598,10700,-627,-651,1357,-107,-39,139
12.56100000000015,112,-530,11070,-131,-211,1664,-119,-36,137
12.583000000000084,-334,-648,9774,143,214,1381,-121,-50,136
12.605000000000018,-478,-940,8522,318,129,1647,-125,-53,136
12.61700000000019,-216,-980,7030,203,80,1721,-108,-50,141
12.639000000000124,982,-560,7820,-55,-102,1622,-124,-54,149
12.651000000000067,1768,-520,6830,-1,708,1411,-124,-64,142
12.673000000000002,1394,-548,5934,-500,121,1127,-107,-64,142
12.685000000000173,374,-450,7052,-758,-348,859,-113,-73,150
12.707000000000107,-3022,-664,9476,-961,-1263,1191,-116,-83,143
12.719000000000051,-1354,-422,13022,-272,-674,1733,-121,-83,141
12.740999999999985,102,-1016,10486,464,468,1935,-122,-87,125
12.753000000000156,52,-1002,9036,589,-290,2215,-121,-88,141
12.775000000000091,1076,-1270,8688,650,-263,2286,-115,-102,149
12.797000000000025,3186,-996,8096,638,82,1875,-122,-97,135
12.809000000000196,192,-1188,6886,402,450,1248,-130,-98,145
12.831000000000131,76,-1242,6906,247,349,1561,-122,-107,137
12.843000000000075,2748,-900,7338,113,480,1401,-119,-102,142
12.865000000000009,2246,-1000,6562,-109,634,856,-111,-96,148
12.887000000000171,1556,-740,6298,-455,551,348,-100,-120,149
12.899000000000115,-130,-670,7144,-738,289,39,-113,-111,153
12.92100000000005,-1240,-524,9450,-783,-50,167,-93,-122,142
12.932999999999993,-1102,-620,9156,-408,-184,306,-106,-129,138
12.955000000000155,-2280,-692,9718,-261,-200,471,-96,-113,148
12.967000000000098,-356,-818,9004,54,-330,800,-106,-131,145
12.989000000000033,192,-876,8060,66,-442,639,-104,-129,148
13.001000000000204,638,-928,8502,3,-726,571,-107,-130,142
13.023000000000138,366,-1120,7758,53,-427,345,-107,-122,139
13.045000000000073,-302,-1270,7362,-89,-192,321,-117,-127,137
13.057000000000016,708,-1122,8480,-222,-284,354,-107,-130,132
13.079000000000178,158,-1016,8834,-143,-256,188,-104,-126,138
13.091000000000122,324,-1134,8590,-14,-353,254,-112,-130,132
13.113000000000056,690,-1162,8106,-19,-501,189,-111,-134,129
13.125,700,-1098,8246,-1,-290,128,-124,-125,142
13.147000000000162,406,-1194,7656,-96,111,66,-111,-139,131
13.159000000000106,314,-1150,7834,-194,14,73,-107,-140,127
13.18100000000004,438,-1098,8764,-173,248,89,-111,-131,124
13.203000000000202,586,-1082,8344,-128,206,35,-106,-144,141
13.215000000000146,348,-1194,8946,-91,376,68,-108,-136,143
13.23700000000008,1114,-1260,8690,-12,746,-60,-105,-137,144
13.249000000000024,1558,-1342,8540,-24,1261,-266,-115,-143,132
13.271000000000186,1428,-1156,9272,-51,2714,-641,-106,-134,145
13.29300000000012,-412,-1212,8664,-105,4943,-1108,-100,-148,154
13.305000000000064,-2040,-1396,9858,9,6993,-1292,-73,-135,154
13.326999999999998,-4344,-1622,6372,285,6027,-852,-65,-136,162
13.33900000000017,-5684,-1756,4372,121,2893,-138,-44,-135,178
13.361000000000104,-2498,-1004,6374,-346,1674,114,-25,-137,175
13.373000000000047,-2486,-1098,7744,-497,1970,-30,-6,-127,182
13.394999999999982,-3310,-1090,7760,-276,2520,-355,-1,-137,178
13.407000000000153,-5114,-1054,8120,-86,3232,-310,1,-135,175
13.429000000000087,-5638,-1128,6184,114,3413,-148,29,-139,167
13.451000000000022,-6732,-1264,6630,-21,3761,123,36,-139,179
13.463000000000193,-5274,-1174,4860,-21,3600,198,36,-134,169
13.485000000000127,-4768,-1046,5768,-292,3148,48,54,-132,166
13.497000000000071,-6188,-1310,6354,14,4232,-84,84,-134,155
13.519000000000005,-5944,-1210,5008,31,4296,-106,99,-136,157
13.531000000000176,-8010,-1772,4188,234,5993,-64,106,-141,150
13.553000000000111,-8086,-1258,2274,-70,6365,-24,112,-130,137
13.575000000000045,-6804,-1216,1140,-220,6141,0,169,-139,107
13.586999999999989,-7928,-1716,2008,-260,7083,121,179,-129,95
13.609000000000151,-6346,-1224,-620,-23,5777,-73,186,-131,76
13.621000000000095,-8378,-1664,-142,4,4547,-260,199,-140,58
13.643000000000029,-9204,-1748,-492,55,5221,-164,230,-126,35
13.6550000000002,-7184,-1450,-3272,72,6067,115,225,-129,11
13.677000000000135,-7156,-1574,-3916,-54,5557,73,233,-135,5
13.69900000000007,-6316,-1344,-4078,10,5643,-82,244,-139,-26
13.711000000000013,-5682,-1348,-5000,-101,4237,-172,236,-130,-58
13.733000000000175,-7206,-1772,-3412,-4,3468,-265,233,-127,-80
13.745000000000118,-5510,-1356,-5134,306,3291,-69,244,-134,-81
13.767000000000053,-6796,-1836,-5540,172,5248,-6,233,-127,-101
13.778999999999996,-4436,-1490,-6214,244,5530,208,217,-136,-136
13.801000000000158,-3636,-1456,-6826,237,5054,218,214,-130,-151
13.813000000000102,-2354,-1230,-7682,228,4328,-4,210,-134,-164
13.835000000000036,-2964,-1398,-7010,149,4637,-50,205,-141,-176
13.857000000000198,-2486,-1524,-6080,142,5412,23,181,-136,-198
13.869000000000142,-794,-1508,-7334,138,6179,226,184,-141,-217
13.891000000000076,102,-1738,-9244,139,6086,307,156,-135,-245
13.90300000000002,928,-1620,-8468,258,4868,159,139,-137,-254
13.925000000000182,892,-1628,-7694,231,3858,-128,115,-143,-268
13.937000000000126,1160,-1834,-8184,149,5417,167,102,-140,-278
13.95900000000006,2562,-1746,-7698,58,4722,260,88,-135,-278
13.971000000000004,2722,-1958,-7186,95,5005,127,66,-137,-280
13.993000000000166,4562,-1786,-6612,-72,3936,231,43,-131,-286
14.0150000000001,4232,-1942,-7790,245,3883,145,26,-149,-282
14.027000000000044,4828,-1758,-6442,188,3097,76,10,-148,-292
14.049000000000206,4906,-1900,-6688,185,2864,89,3,-132,-292
14.06100000000015,6322,-1696,-5428,191,2495,-7,-14,-144,-284
14.083000000000084,6254,-1906,-6348,119,3042,-51,-33,-149,-284
14.095000000000027,6224,-2086,-4954,27,3518,-64,-32,-163,-276
14.11700000000019,6452,-2060,-4728,-21,3555,-77,-42,-150,-285
14.139000000000124,7034,-1950,-4946,-83,3986,-19,-76,-148,-264
14.151000000000067,7210,-1852,-4118,46,3731,-77,-81,-143,-256
14.173000000000002,7660,-1872,-4176,-62,4203,-22,-99,-156,-251
14.185000000000173,7964,-1866,-2442,-11,3853,-87,-112,-150,-254
14.207000000000107,7680,-2006,-1710,15,3184,-92,-128,-144,-236
14.219000000000051,8130,-2034,-2238,166,3440,-154,-138,-141,-224
14.240999999999985,8122,-1852,-870,45,3652,-183,-138,-144,-222
14.253000000000156,8112,-1874,-70,216,3191,-176,-158,-145,-213
14.275000000000091,7870,-1924,78,263,3330,-201,-165,-145,-192
14.297000000000025,7246,-2118,160,294,3360,-164,-175,-160,-185
14.309000000000196,7148,-2244,1650,354,3968,131,-174,-146,-176
14.331000000000131,7506,-2010,1494,422,3505,100,-186,-146,-169
14.343000000000075,7450,-2448,2258,394,3100,271,-185,-150,-139
14.365000000000009,7928,-1638,2448,193,2854,20,-190,-148,-130
14.37700000000018,7152,-1738,3558,315,2797,213,-190,-153,-118
14.394283000000087,7730,-2204,4774,450,3039,210,-202,-153,-115
14.417000000000144,8236,-1420,3558,610,3105,201,-210,-141,-90
14.439000000000078,6834,-1890,2774,463,2516,99,-204,-160,-89
14.451000000000022,8462,-1228,5074,361,2312,142,-213,-164,-62
14.473000000000184,6760,-1852,4102,477,2680,-45,-204,-155,-70
14.485000000000127,5926,-1842,4212,371,1953,-15,-207,-150,-51
14.507000000000062,6150,-2136,3154,457,2158,444,-209,-165,-37
14.519000000000005,6776,-1738,5184,385,1692,142,-204,-158,-34
14.541000000000167,5852,-1580,4990,220,1877,-17,-211,-163,-22
14.553000000000111,6890,-956,7092,317,1544,71,-197,-165,-8
14.575000000000045,5544,-1672,5146,172,363,-111,-201,-149,4
14.597000000000207,5622,-1514,6408,143,480,-171,-198,-151,4
14.609000000000151,5340,-1456,6032,78,345,-118,-205,-154,-2
14.631000000000085,4668,-1600,6026,46,18,17,-197,-150,1
14.643000000000029,6596,-1292,5658,177,-266,43,-201,-151,2
14.665000000000191,6552,-1372,5190,52,-531,-303,-203,-146,4
14.677000000000135,5098,-1684,5968,-64,-965,-362,-207,-160,1
14.69900000000007,5278,-1554,5852,9,-1255,-114,-202,-153,-3
14.721000000000004,7642,-412,5656,86,-1758,-226,-203,-156,-2
14.733000000000175,7318,-902,4432,39,-3409,-866,-204,-158,-17
14.75500000000011,5092,-1708,4860,-116,-3369,-836,-204,-148,-17
14.767000000000053,5116,-1820,5466,-198,-3024,-41,-209,-153,-44
14.788999999999987,7998,-1042,4450,5,-2029,-4,-213,-141,-54
14.801000000000158,7892,-860,3320,-53,-3110,-519,-211,-145,-58
14.823000000000093,7918,-948,2940,-136,-4617,-784,-215,-149,-64
14.845000000000027,6110,-1572,3634,-249,-4557,-183,-211,-140,-106
14.857000000000198,8622,-1032,2796,59,-2930,253,-198,-139,-114
14.879000000000133,7742,-1358,1774,-107,-1763,-99,-207,-140,-125
14.891000000000076,7592,-1250,1648,-243,-1291,-68,-204,-137,-135
14.913000000000011,7754,-1184,342,-160,-1736,-74,-203,-136,-141
14.925000000000182,7850,-1222,378,-287,-2492,172,-194,-148,-147
14.947000000000116,8554,-1272,6,-178,-5412,241,-190,-143,-154
14.969000000000051,8508,-1270,502,-282,-5207,163,-196,-139,-176
14.980999999999995,7382,-1138,-4048,-232,-7269,415,-175,-145,-204
15.003000000000156,8968,-1776,-814,-210,-9378,717,-152,-136,-224
15.0150000000001,8916,-1124,-3738,-404,-5591,183,-129,-145,-242
15.037000000000035,6882,-1578,-2688,-516,-4905,288,-112,-137,-249
15.049000000000206,6850,-1338,-4192,-167,-3738,40,-81,-143,-271
15.07100000000014,7072,-1252,-5962,-249,-3404,226,-67,-129,-274
15.093000000000075,5762,-1424,-6332,-367,-3630,51,-42,-140,-288
15.105000000000018,6270,-1158,-6992,-431,-5829,148,-38,-129,-284
15.12700000000018,4774,-1306,-5314,-204,-6311,82,-13,-135,-290
15.139000000000124,3348,-1442,-7508,-269,-4193,86,14,-134,-291
15.161000000000058,2080,-1330,-8258,-380,-5248,319,32,-130,-290
15.173000000000002,2596,-1010,-8586,-277,-6545,495,38,-134,-291
15.195000000000164,2432,-1016,-10900,-354,-9733,614,88,-127,-285
15.207000000000107,2296,-790,-8926,-400,-13799,141,113,-134,-265
15.229000000000042,-1948,-1264,-6574,-212,-12141,-99,162,-131,-241
15.251000000000204,-3094,-990,-5516,-83,-11556,118,194,-130,-209
15.263000000000147,-5730,-1100,-5156,5,-9420,42,232,-126,-138
15.285000000000082,-6572,-1214,-4054,-78,-8349,184,240,-125,-94
15.297000000000025,-6090,-886,-3642,103,-7653,59,242,-126,-71
15.319000000000187,-6224,-988,-3832,88,-9094,-114,243,-107,-51
15.331000000000131,-6948,-1126,-1370,117,-10641,-329,222,-131,21
15.353000000000065,-8246,-1196,3186,-59,-9052,-213,211,-115,44
15.375,-8662,-1152,3832,151,-5939,31,188,-131,78
15.387000000000171,-7282,-1012,2572,122,-4639,217,176,-113,95
15.409000000000106,-7768,-1034,3352,148,-3891,-51,157,-116,121
15.42100000000005,-6436,-896,3576,229,-4196,-20,146,-122,125
15.442999999999984,-7166,-1112,4188,102,-4824,-32,128,-116,150
15.455000000000155,-6454,-1076,4392,172,-5430,116,127,-117,147
15.47700000000009,-5840,-968,5476,102,-5376,43,92,-113,172
15.499000000000024,-5210,-840,6944,10,-5252,-14,61,-112,168
15.511000000000195,-4370,-996,6870,148,-4273,-151,50,-124,172
15.53300000000013,-4430,-1186,6018,56,-4427,-169,39,-115,175
15.545000000000073,-4254,-1172,4836,-46,-5857,-77,2,-113,181
15.567000000000007,-2028,-900,9136,-352,-4333,-53,-14,-116,179
15.579000000000178,-2614,-1184,7950,-8,-4525,-18,-42,-112,182
15.601000000000113,-1764,-1138,8310,-96,-2870,-173,-50,-106,162
15.613000000000056,-1574,-958,8676,12,-2783,-53,-66,-120,161
15.634999999999991,-1258,-1082,8244,-7,-2127,-170,-76,-117,158
15.647000000000162,-96,-940,8164,34,-3131,95,-84,-124,153
15.669000000000096,230,-1124,7842,10,-3259,-117,-92,-129,145
15.691000000000031,-342,-1426,7238,116,-4510,-174,-116,-113,129
15.703000000000202,1654,-1110,6182,-228,-3316,-134,-127,-122,132
15.725000000000136,1990,-784,11338,-68,-4914,323,-136,-115,125
15.73700000000008,942,-1530,8508,-165,-2691,-138,-142,-111,119
15.759000000000015,2716,-1070,8256,-38,-2207,102,-155,-124,107
15.771000000000186,2620,-1352,7456,-19,-2233,115,-163,-127,92
15.79300000000012,3688,-768,6696,30,-1995,76,-180,-120,77
15.815000000000055,4652,-858,6164,-177,64,-185,-175,-127,80
15.826999999999998,2952,-1200,7640,-16,-541,111,-182,-122,75
15.84900000000016,3118,-1218,7184,17,121,-36,-176,-124,66
15.861000000000104,4212,-1154,7212,-79,-213,135,-187,-122,63
15.883000000000038,3598,-1276,7186,-94,-242,-27,-173,-122,77
15.894999999999982,3786,-1322,7678,-100,-679,23,-185,-125,63
15.917000000000144,4366,-1140,8020,-146,-419,-51,-186,-118,64
15.939000000000078,3684,-1140,8290,-68,69,-142,-179,-129,64
15.951000000000022,3496,-1070,7820,-77,659,-158,-185,-112,68
15.973000000000184,3344,-1050,7556,-67,536,-83,-186,-118,64
15.985000000000127,3782,-1080,7158,-27,65,-14,-175,-120,60
16.007000000000062,4074,-1024,7302,-119,185,-184,-184,-121,66
16.019000000000005,3388,-1012,7426,-298,806,-396,-187,-125,56
16.041000000000167,3258,-908,7392,-342,912,-351,-175,-120,63
16.05300000000011,3006,-1096,6766,-412,735,-381,-174,-124,66
16.075000000000045,3730,-928,7450,-451,830,-513,-178,-122,72
16.097000000000207,3052,-1340,7566,-597,1128,-679,-175,-122,70
16.10900000000015,2418,-1338,7670,-754,1003,-790,-174,-126,83
16.131000000000085,1892,-1646,8010,-529,122,-575,-175,-110,84
16.14300000000003,4558,-1330,7380,-473,117,-659,-180,-120,77
16.16500000000019,2526,-1648,8408,-427,170,-852,-168,-112,94
16.177000000000135,3106,-1484,8158,-324,615,-925,-171,-108,90
16.19900000000007,2116,-1522,8286,-323,959,-1065,-179,-118,86
16.221000000000004,2422,-1136,8580,-96,1070,-956,-168,-112,87
16.233000000000175,2622,-1686,6368,-153,675,-853,-161,-105,80
16.25500000000011,4122,-1260,6912,-266,-52,-883,-170,-102,94
16.267000000000053,3958,-1384,6866,-419,-257,-1149,-171,-108,102
16.288999999999987,4134,-1422,7320,-534,-443,-1301,-168,-102,84
16.30100000000016,2084,-1764,7316,-745,-270,-1644,-165,-94,99
16.323000000000093,2724,-1478,8348,-705,-352,-1422,-178,-87,84
16.335291000000097,4998,-1354,8014,-546,-2,-1577,-168,-79,94
16.358000000000175,4716,-1704,6780,-645,-188,-1916,-175,-89,92
16.38000000000011,4420,-2024,7912,-936,-13,-2288,-171,-83,90
16.396998000000167,3080,-2470,7568,-924,448,-2634,-180,-79,80
16.409000000000106,2206,-2232,8164,-1029,112,-2533,-174,-75,95
16.43100000000004,2568,-1854,9304,-851,660,-2848,-168,-56,94
16.442999999999984,2764,-1708,8560,-646,637,-2762,-173,-56,94
16.465000000000146,2064,-1662,8694,-446,479,-2781,-174,-43,95
16.47700000000009,1664,-1808,8204,-266,144,-2448,-162,-30,93
16.499000000000024,3294,-1696,6956,-256,696,-2473,-164,-37,95
16.521000000000186,2444,-1492,5488,-649,685,-2557,-158,-21,101
16.53300000000013,2754,-1262,7316,-973,245,-2262,-144,-16,99
16.555000000000064,3120,-1316,9286,-934,1005,-2459,-150,-5,98
16.567000000000007,2902,-1202,8720,-756,724,-2568,-144,-1,118
16.58900000000017,6034,-836,8826,-698,1418,-2963,-139,-1,118
16.601000000000113,4270,-1448,8712,-575,1502,-3721,-125,10,119
16.623000000000047,3166,-1838,8098,-469,1697,-3882,-123,15,114
16.644999999999982,4784,-1664,6940,-564,3240,-4533,-116,20,121
16.657000000000153,-1648,-2180,7016,-541,2709,-4374,-88,21,118
16.679000000000087,-500,-1142,8842,-343,1951,-3377,-72,32,136
16.69100000000003,-1740,-1256,8184,-56,494,-2686,-46,40,153
16.713000000000193,-1058,-886,9976,101,-407,-2107,-52,36,142
16.725000000000136,1390,-550,8382,312,155,-2088,-46,45,150
16.74700000000007,3146,-522,8840,206,779,-2532,-43,50,143
16.759000000000015,538,-686,8062,134,1760,-2989,-33,53,150
16.781000000000176,448,-606,6800,119,1153,-2685,-21,50,148
16.80300000000011,-454,-640,6872,-10,-564,-2360,-7,60,148
16.815000000000055,-54,-318,10538,-84,-751,-2129,2,53,145
16.83699999999999,380,-454,9400,337,-866,-1899,4,58,148
16.84900000000016,1966,-52,6128,323,-1789,-1916,-2,58,143
16.871000000000095,4922,-234,6000,161,-2909,-2137,4,50,143
16.883000000000038,4202,1076,9026,-491,-2413,-2908,-13,67,149
16.9050000000002,128,-856,6864,-680,-30,-3014,-10,59,135
16.927000000000135,-1958,-420,10528,-623,1009,-2142,-1,56,139
16.939000000000078,-438,-550,8236,-225,705,-1371,2,58,136
16.961000000000013,3818,-294,5726,-237,525,-1395,7,53,148
16.973000000000184,1562,-214,6444,-864,673,-1855,18,62,139
16.99500000000012,1460,-332,8264,-1089,317,-1361,23,54,142
17.007000000000062,1048,-362,11634,-783,651,-1564,31,53,143
17.028999999999996,1358,-604,11328,-305,1414,-1357,38,55,143
17.041000000000167,1504,-336,6472,-93,1546,-1772,36,35,143
17.063000000000102,2642,10,8044,-329,468,-1494,53,40,141
17.085000000000036,772,-270,6956,-304,711,-2039,42,39,137
17.097000000000207,-1610,-818,9300,-426,323,-1598,56,29,144
17.119000000000142,-134,-386,9978,-278,845,-1274,67,40,145
17.131000000000085,336,-122,8048,-91,733,-1434,65,40,150
17.15300000000002,1270,-48,6738,-156,637,-1555,66,31,151
17.16500000000019,-1744,-732,9260,-266,-72,-1307,78,18,139
17.187000000000126,-1480,-540,7866,-346,99,-1220,78,29,147
17.20900000000006,222,-336,9228,-328,117,-942,81,24,144
17.221000000000004,196,-368,9778,39,-322,-916,75,20,141
17.243000000000166,1692,-314,8168,74,-232,-1215,84,25,143
17.25500000000011,-1822,-1774,4826,138,1532,-1261,81,29,142
17.277000000000044,-638,-858,8348,-266,1368,-1249,92,12,143
17.288999999999987,-40,-78,6518,-225,603,-797,93,18,144
17.31100000000015,-854,-298,9110,-245,59,-792,115,6,144
17.333000000000084,966,170,8114,-77,-176,-760,106,17,143
17.345000000000027,148,-330,7774,27,13,-847,102,8,135
17.36700000000019,-400,-456,7474,-292,-111,-868,104,22,141
17.379000000000133,-1526,-966,7560,-315,-105,-585,98,3,149
17.401000000000067,6,-624,8756,-397,298,-653,112,6,135
17.41300000000001,-1262,-1166,8896,-286,15,-438,117,3,137
17.435000000000173,556,-512,9392,-88,62,-338,112,1,147
17.447000000000116,-184,-786,9024,-19,-279,-387,111,2,150
17.46900000000005,-212,-700,8206,43,-628,-347,112,1,144
17.490999999999985,262,-246,7684,128,-1004,-341,111,-5,136
17.503000000000156,148,-806,8620,88,-2235,-353,107,-1,142
17.52500000000009,960,-546,8016,108,-703,-671,99,-10,136
17.537000000000035,-1402,-696,8920,-2,-1122,-379,100,-1,149
17.559000000000196,-590,-584,9002,119,-692,-220,90,1,147
17.58100000000013,-370,-316,8460,-14,238,-71,83,-3,149
17.593000000000075,378,-460,7746,49,744,-101,93,-3,149
17.61500000000001,-4,-518,8670,-107,843,-125,83,1,151
17.62700000000018,1316,0,7250,-53,1162,-210,88,1,161
17.649000000000115,796,-202,8200,-128,32,-186,101,-2,145
17.661000000000058,154,-824,8900,-122,493,-315,101,-7,150
17.682999999999993,-62,-606,8394,-90,681,-131,101,-10,153
17.695000000000164,694,-450,8364,-48,283,-64,95,-6,144
17.7170000000001,510,-740,7876,27,317,-182,93,-6,142
17.739000000000033,-718,-936,7964,-88,188,-182,111,-5,141
17.751000000000204,-1502,-1060,8976,-56,-7,117,118,-5,143
17.77300000000014,60,-540,7892,10,-2,92,105,-8,149
17.785000000000082,-720,-1016,8370,-28,-38,118,102,-13,137
17.807000000000016,-434,-950,7606,-64,280,219,115,1,135
17.819000000000187,282,-480,8594,-129,-121,269,104,-5,143
17.841000000000122,822,-386,8462,26,-621,160,102,-6,144
17.853000000000065,736,-498,7444,-8,-1066,36,100,1,147
17.875,-594,-878,8832,-84,-1229,89,102,-6,147
17.897000000000162,722,-506,8388,80,-1463,218,100,-6,144
17.909000000000106,1308,-578,8904,227,-2683,185,90,-6,156
17.93100000000004,2608,-628,7338,300,-3752,-86,79,-2,148
17.942999999999984,2642,-242,7774,337,-3829,-99,72,-2,155
17.965000000000146,3382,-186,7870,477,-5762,-138,58,0,162
17.98700000000008,3124,-902,7272,513,-4858,-150,33,0,160
17.999000000000024,4406,-26,9232,540,-4755,-218,24,-2,169
18.021000000000186,5256,96,6402,311,-4528,-163,-19,5,148
18.03300000000013,4842,-4,5766,447,-5367,-60,-25,11,156
18.055000000000064,6264,-672,7480,689,-6394,-56,-42,3,156
18.067000000000007,7496,350,4556,386,-6898,31,-52,8,154
18.08900000000017,6676,-242,3004,-51,-5191,-131,-84,15,141
18.101000000000113,9036,-2118,1696,118,-5451,84,-108,15,121
18.123000000000047,4874,-652,5760,151,-5745,-817,-118,7,114
18.13499999999999,7540,-214,318,199,-5088,-84,-140,20,88
18.157000000000153,9264,40,1254,-72,-4598,-164,-161,26,58
18.179000000000087,7900,-72,1714,-90,-4204,-303,-169,22,52
18.19100000000003,7818,-128,-474,18,-4052,-173,-169,20,45
18.213000000000193,7954,282,282,89,-3356,-119,-184,25,31
18.225000000000136,8620,646,-2252,118,-2946,-54,-191,7,16
18.24700000000007,8124,354,-2922,185,-2571,-191,-193,10,4
18.259000000000015,8354,654,-1266,287,-2456,-444,-193,25,-9
18.281000000000176,8660,374,-3492,493,-3165,-657,-196,25,-31
18.30300000000011,8322,464,-2234,454,-2378,-1111,-196,17,-38
18.315000000000055,6822,550,-1776,591,-1976,-1194,-190,21,-49
18.33699999999999,6270,750,-4668,1258,-2957,-672,-196,27,-59
18.34900000000016,4780,-28,-4162,745,-1164,-281,-194,29,-60
18.371000000000095,5708,492,-3902,583,-1251,365,-190,41,-80
18.397998000000143,7788,808,-4850,404,-1070,353,-188,35,-86
18.410000000000082,7128,276,-4510,261,-663,220,-182,41,-89
18.422000000000025,6542,58,-5308,399,-963,204,-179,20,-86
18.444000000000187,5718,332,-4534,264,-1210,335,-182,31,-94
18.45600000000013,6840,612,-5672,213,-1142,281,-190,21,-103
18.478000000000065,7694,678,-4892,189,-1045,87,-185,24,-108
18.49000000000001,5900,-38,-4926,-33,-341,-143,-187,31,-108
18.51200000000017,4992,-196,-4420,-72,86,49,-191,17,-114
18.524000000000115,5970,50,-5142,111,49,197,-185,26,-111
18.54600000000005,5578,178,-4920,65,-79,259,-176,20,-109
18.567999999999984,8128,572,-5710,105,-175,134,-188,25,-117
18.580000000000155,5580,-110,-5000,120,-237,-51,-191,27,-109
18.60200000000009,4864,-232,-4286,-14,-467,166,-194,21,-106
18.614000000000033,6298,192,-5492,253,-769,227,-190,26,-106
18.636000000000195,6208,328,-5022,207,-710,268,-186,22,-114
18.64800000000014,6914,72,-5804,153,-640,179,-185,18,-120
18.670000000000073,5406,-160,-5542,-45,-745,62,-176,10,-119
18.682000000000016,4116,-612,-4978,341,-1848,450,-187,31,-125
18.70400000000018,6026,-160,-4736,542,-1552,459,-184,25,-126
18.726000000000113,6364,-52,-5746,663,-1064,331,-181,12,-143
18.738000000000056,5476,-166,-7738,338,-350,147,-167,17,-143
18.75999999999999,3904,-974,-6810,281,-1606,377,-173,11,-151
18.772000000000162,6108,-442,-6230,212,-2016,322,-174,0,-164
18.794000000000096,5548,-1042,-7870,305,-1777,67,-168,13,-166
18.80600000000004,4332,-596,-2156,-92,-604,-292,-168,6,-168
18.828000000000202,4034,-586,-9154,95,-1133,-37,-165,-1,-168
18.850000000000136,4332,-612,-6810,79,-1333,-155,-165,11,-178
18.86200000000008,4354,-936,-6172,25,-1097,-155,-158,13,-185
18.884000000000015,5518,-428,-1450,-230,260,-365,-151,11,-180
18.896000000000186,1456,-948,-7706,447,-1200,-36,-157,5,-188
18.91800000000012,4662,-54,-7242,466,-1251,32,-141,11,-192
18.930000000000064,2668,-782,-7976,106,-947,-47,-155,12,-191
18.951999999999998,3640,-950,-7590,160,-1021,79,-153,16,-194
18.97400000000016,3356,-776,-6250,209,-1786,72,-133,12,-196
18.986000000000104,2484,-776,-6848,344,-1510,37,-134,6,-204
19.008000000000038,3370,-452,-8038,383,-717,91,-133,0,-217
19.019999999999982,2468,-914,-8326,180,-480,-49,-130,2,-229
19.042000000000144,2600,-990,-7166,273,-920,13,-133,-2,-229
19.054000000000087,3116,-652,-7568,325,-1201,-17,-133,-7,-217
19.076000000000022,2402,-996,-7876,236,-1742,-9,-119,-1,-223
19.088000000000193,2322,-772,-7582,197,-1510,-52,-113,2,-229
19.110000000000127,-378,-4004,-10556,306,1825,-276,-115,1,-230
19.132000000000062,2852,-598,-8800,-159,29,117,-115,3,-230
19.144000000000005,1230,-1372,-7358,90,-219,190,-106,0,-231
19.166000000000167,2224,-1268,-7494,15,-341,5,-113,10,-239
19.17800000000011,2396,-1272,-7702,102,43,17,-112,-1,-237
19.200000000000045,386,-1458,-9438,1,15,-182,-113,7,-243
19.21199999999999,1530,-1218,-8214,41,-407,238,-104,-5,-236
19.23400000000015,3410,-902,-6868,-37,-45,-35,-115,1,-245
19.256000000000085,2570,-594,-6098,15,1140,-330,-108,-5,-243
19.26800000000003,-380,-1634,-8286,7,1316,-203,-108,0,-236
19.29000000000019,2886,-992,-8626,55,1110,6,-105,-6,-228
19.302000000000135,2432,-1232,-7512,-60,607,-50,-125,-2,-236
19.32400000000007,2774,-1048,-8220,-105,1013,-124,-110,1,-218
19.336000000000013,2750,-1108,-7350,-194,1514,-59,-130,0,-234
19.358000000000175,3638,-1132,-7854,-479,2334,-161,-130,5,-217
19.38000000000011,2906,-1218,-5788,-418,2992,-144,-127,-3,-223
19.392000000000053,4196,-692,-7638,-206,3183,-187,-142,5,-205
19.413999999999987,3074,-972,-7624,-244,2653,-224,-148,8,-192
19.42600000000016,4690,-602,-7920,-262,2070,-203,-147,-2,-186
19.448000000000093,6122,-526,-6778,-552,2493,-236,-157,2,-184
19.460000000000036,4854,-852,-5966,-356,2175,-592,-164,7,-169
19.4820000000002,4922,-846,-6070,-339,2405,-386,-167,7,-162
19.494000000000142,5272,-638,-6624,-278,2364,-392,-169,10,-136
19.516000000000076,6502,-224,-6220,-348,2620,-442,-179,7,-148
19.53800000000001,6522,98,-5140,-464,2944,-669,-181,25,-141
19.550000000000182,6482,8,-4516,-537,3822,-745,-182,6,-127
19.572000000000116,5660,-322,-4976,-215,3282,-680,-194,18,-108
19.58400000000006,6834,-68,-4444,-373,3037,-497,-194,26,-99
19.605999999999995,7396,158,-3160,-404,3628,-538,-187,31,-89
19.618000000000166,8640,522,-2802,-333,4322,-734,-198,25,-76
19.6400000000001,8158,556,-2208,-422,4866,-852,-185,39,-46
19.662000000000035,6346,-290,-2894,-279,2881,-601,-181,32,-33
19.674000000000206,8000,762,-1214,-359,2504,-319,-186,40,-14
19.69600000000014,8200,900,-346,-348,2673,-332,-176,37,-4
19.708000000000084,7196,1124,118,-208,3288,-397,-168,36,10
19.730000000000018,7964,1276,628,-38,3841,-343,-178,36,27
19.74200000000019,8580,896,382,-99,4688,-506,-171,37,28
19.764000000000124,8370,930,1230,-196,4647,-641,-163,41,46
19.786000000000058,6988,168,1040,-375,4023,-490,-144,46,63
19.798000000000002,6500,654,3234,-265,3305,-73,-128,45,66
19.820000000000164,7940,918,3152,-197,3768,-15,-133,35,71
19.832000000000107,8610,1222,3736,-471,3342,-150,-121,53,90
19.854000000000042,7806,1132,4664,-481,3797,-439,-102,46,106
19.865999999999985,5976,750,4856,-289,3676,-412,-99,45,114
19.888000000000147,7142,1058,5144,-385,4960,-338,-84,32,119
19.90000000000009,4458,534,6286,-334,5191,-316,-65,32,124
19.922000000000025,6234,1060,7384,-259,5640,-109,-43,45,143
19.944000000000187,5880,1424,6576,-207,6116,-392,-24,45,136
19.95600000000013,3794,922,7114,-274,5414,-536,-10,44,149
19.978000000000065,2190,532,5992,-78,5815,-204,13,51,149
19.99000000000001,1368,186,6728,23,3459,9,44,39,154
20.01200000000017,2356,708,7506,-233,2924,2,52,31,147
20.024000000000115,1778,1218,9366,-188,3499,-215,69,36,135
20.04600000000005,874,1686,11248,255,6046,-357,70,43,138
20.067999999999984,-1884,258,6280,272,6320,122,96,43,131
20.080000000000155,-612,780,6996,-164,5907,229,112,46,115
20.10200000000009,-2060,1220,8340,-269,5074,153,125,53,100
20.114000000000033,-2724,1558,9128,-129,5176,43,152,40,100
20.136000000000195,-1598,1916,11062,259,6107,-71,170,46,72
20.14800000000014,-4426,482,6806,1077,6710,-292,178,41,60
20.170000000000073,-4142,970,4068,404,4964,-129,199,46,41
20.182000000000016,-6150,686,2762,-75,3365,105,193,40,23
20.20400000000018,-6824,1506,6854,-246,3855,-10,209,31,-5
20.226000000000113,-8254,1308,4738,-133,4532,357,210,37,-9
20.238000000000056,-7290,938,3572,-19,4545,521,210,45,-26
20.25999999999999,-5912,1344,3648,-297,3360,398,217,50,-35
20.272000000000162,-6694,1132,3648,-24,3580,200,214,36,-56
20.294000000000096,-7858,1510,2690,-114,3391,91,209,49,-77
20.30600000000004,-8342,1438,2930,23,4698,189,203,43,-86
20.328000000000202,-7842,1034,266,46,6473,315,199,51,-89
20.350000000000136,-6512,1496,-588,-524,5714,182,196,43,-133
20.36200000000008,-7428,1488,1084,-293,5180,-70,190,49,-144
20.384000000000015,-8360,1372,614,5,5530,32,188,50,-164
20.400998000000072,-8460,1444,-560,400,5797,219,175,56,-180
20.41300000000001,-7388,1314,-3018,430,6079,393,155,55,-203
20.435000000000173,-5846,1298,-3852,402,5005,240,139,44,-211
20.457000000000107,-5818,1346,-2184,446,4638,37,127,49,-218
20.46900000000005,-5110,986,-5880,677,4526,-71,117,56,-228
20.490999999999985,-6422,1680,-4704,380,3795,-411,85,51,-249
20.503000000000156,-6310,1516,-6520,357,3951,-144,75,45,-253
20.52500000000009,-7110,1178,-5554,436,4543,116,66,41,-249
20.537000000000035,-4724,1388,-7264,451,4260,307,53,37,-265
20.559000000000196,-4590,702,-6982,457,4439,502,31,35,-262
20.58100000000013,-2032,880,-9300,470,4055,447,16,37,-255
20.593000000000075,-2832,948,-8106,246,1953,5,-2,30,-262
20.61500000000001,-3452,880,-8254,236,2379,206,-4,22,-272
20.62700000000018,-3096,1078,-7904,187,2380,301,-19,32,-262
20.649000000000115,-1940,1098,-7102,63,1855,394,-36,25,-251
20.661000000000058,-1326,756,-8164,278,2318,425,-29,27,-253
20.682999999999993,-988,248,-6606,254,1372,330,-32,31,-264
20.695000000000164,-1948,926,-7486,480,2328,242,-55,25,-255
20.7170000000001,-1116,1144,-8834,185,2607,465,-65,27,-255
20.729000000000042,62,722,-7174,187,3706,624,-64,29,-259
20.751000000000204,198,560,-8194,50,3865,574,-76,31,-249
20.77300000000014,2208,858,-8182,32,2967,449,-102,16,-237
20.785000000000082,2028,702,-8376,200,2428,337,-108,17,-227
20.807000000000016,1526,1004,-8194,132,1369,-84,-121,15,-222
20.819000000000187,1246,1078,-7792,-98,1864,95,-117,18,-225
20.841000000000122,1182,578,-6886,-34,2736,240,-128,22,-222
20.863000000000056,3658,992,-7148,108,2481,358,-130,12,-193
20.875,2916,520,-4304,-60,1983,109,-140,10,-198
20.897000000000162,3972,724,-8248,643,565,128,-139,16,-194
20.909000000000106,3456,864,-8002,678,-569,-26,-150,2,-196
20.93100000000004,2418,430,-8630,499,747,188,-148,-3,-187
20.942999999999984,3104,544,-8304,199,570,103,-144,8,-199
20.965000000000146,3386,426,-7982,31,817,208,-146,11,-185
20.97700000000009,3934,252,-7888,-67,711,111,-150,0,-191
20.999000000000024,4080,146,-7872,102,-737,-50,-159,5,-188
21.021000000000186,3140,-142,-8134,328,-2677,-144,-141,16,-187
21.03300000000013,3468,-334,-8978,613,-5593,-61,-146,3,-199
21.055000000000064,1340,1070,-8400,398,-6076,-199,-136,3,-216
21.067000000000007,512,706,-8080,-192,-2235,62,-111,5,-224
21.08900000000017,454,316,-7216,-294,-1967,-16,-115,3,-230
21.101000000000113,744,94,-7908,-7,-2681,-152,-113,10,-248
21.123000000000047,1138,102,-8370,-46,-4063,-236,-81,8,-245
21.13499999999999,546,-36,-9546,106,-6702,-430,-61,1,-261
21.157000000000153,-2376,608,-7328,-330,-6940,-450,-61,6,-261
21.179000000000087,-3660,832,-6904,-558,-5143,-256,-41,10,-274
21.19100000000003,-4634,222,-6084,-568,-4246,-48,-2,10,-262
21.213000000000193,-3030,614,-6890,-261,-4405,-11,8,3,-261
21.225000000000136,-3490,224,-7888,-383,-5858,-309,32,11,-273
21.24700000000007,-4642,502,-7228,-622,-7597,-354,46,12,-274
21.269000000000005,-5998,588,-6964,-822,-9415,-326,94,22,-255
21.281000000000176,-6508,332,-5780,-1298,-11886,117,110,-1,-256
21.30300000000011,-5668,834,-630,-1641,-12275,468,139,21,-230
21.315000000000055,-5192,162,738,-1327,-12261,435,176,12,-200
21.33699999999999,-4888,1098,522,-928,-15974,481,208,25,-124
21.34900000000016,-4374,356,2850,-1465,-17581,1028,221,34,-84
21.371000000000095,-2134,616,9128,-1553,-14654,1236,217,27,-26
21.383000000000038,-1082,444,8766,-1119,-11504,946,203,43,31
21.4050000000002,-368,612,11210,-934,-8378,809,150,40,100
21.427000000000135,244,688,9786,-678,-4353,610,118,32,114
21.439000000000078,646,822,9710,-300,-3138,241,111,37,124
21.461000000000013,164,636,8252,-171,-2632,205,102,46,139
21.473000000000184,618,480,8276,-148,-1975,197,87,40,136
21.49500000000012,1174,572,9538,-244,-565,87,84,37,148
21.507000000000062,1256,508,9108,-201,417,-74,72,40,141
21.528999999999996,1254,426,8870,84,512,-199,76,44,142
21.541000000000167,850,320,7574,48,500,-283,79,40,150
21.563000000000102,262,328,8376,-74,-28,-215,79,32,145
21.585000000000036,588,44,8794,-43,782,-269,70,32,141
21.597000000000207,1224,456,8608,-142,1222,-353,83,31,142
21.619000000000142,824,554,7038,-43,-162,-453,89,45,138
21.631000000000085,766,526,8790,-71,-1391,-332,85,29,135
21.65300000000002,122,340,9626,-25,-873,-519,90,31,132
21.66500000000019,-604,-60,9406,140,15,-428,84,35,141
21.687000000000126,-794,-158,7270,312,-201,-105,77,32,136
21.70900000000006,244,228,6962,27,-431,179,87,37,143
21.721000000000004,566,550,8036,-76,-998,157,79,30,141
21.743000000000166,1126,770,9244,-1,-712,205,85,34,142
21.75500000000011,740,620,8796,232,-300,95,75,30,143
21.777000000000044,558,548,8636,268,30,199,70,40,143
21.788999999999987,622,748,9224,314,756,164,70,37,148
21.81100000000015,-314,464,8530,438,991,311,76,39,142
21.82328500000017,1242,814,7944,290,1635,324,67,43,141
21.845000000000027,-756,484,7004,294,1357,370,70,40,136
21.86700000000019,-1050,752,8070,129,403,757,83,34,137
21.879000000000133,620,766,7894,241,22,1166,79,43,129
21.901000000000067,1096,746,8470,312,-117,1138,90,49,123
21.91300000000001,2272,1556,7808,81,569,785,85,49,137
21.935000000000173,464,1076,8530,57,374,413,85,56,130
21.947000000000116,-110,982,8674,95,115,484,79,63,126
21.96900000000005,-1108,780,9010,168,139,548,77,58,131
21.990999999999985,-3126,168,8496,491,-98,1168,77,45,133
22.003000000000156,-2986,114,6728,613,-663,2042,71,59,127
22.02500000000009,-498,152,6816,393,138,2388,76,62,132
22.037000000000035,672,506,6852,-94,731,2040,61,72,118
22.059000000000196,-1490,-660,8250,19,951,2119,60,65,119
22.07100000000014,-332,-92,6264,-100,-97,2568,65,73,121
22.093000000000075,-370,132,7660,-496,-795,2538,59,74,115
22.11500000000001,526,284,8954,-500,293,2779,44,67,118
22.12700000000018,2716,832,8692,-531,-146,2542,48,70,124
22.149000000000115,3030,1246,9508,-784,475,1591,23,69,127
22.161000000000058,-740,520,10280,-425,494,1137,37,74,132
22.182999999999993,-3690,-492,9624,-72,-194,1997,32,64,125
22.195000000000164,-2020,-488,8098,211,-531,3007,18,64,137
22.2170000000001,2298,-28,7860,-18,-37,3151,21,68,133
22.229000000000042,3630,110,8004,-170,462,2331,6,77,137
22.251000000000204,2094,234,8150,-143,426,1935,-1,69,135
22.27300000000014,42,100,7378,-314,396,2104,-4,60,136
22.285000000000082,790,506,8388,-381,-979,2548,0,68,133
22.307000000000016,2482,922,9938,-272,-1329,2332,-4,75,148
22.319000000000187,2498,514,10600,146,-1106,1770,-31,53,136
22.341000000000122,1992,28,9080,435,-525,1345,-30,59,137
22.353000000000065,1802,-366,8390,437,41,1188,-36,63,138
22.375,1746,-330,7044,229,124,935,-33,60,136
22.40199800000005,772,-272,7464,-49,-243,972,-43,63,129
22.413999999999987,1762,112,8686,-141,-426,1100,-50,60,133
22.42600000000016,2338,576,8724,-68,-459,878,-44,59,135
22.448000000000093,1594,360,9330,8,-234,649,-55,65,133
22.460000000000036,838,-68,8924,139,-98,643,-46,53,126
22.4820000000002,830,-364,8522,208,-160,717,-62,50,133
22.494000000000142,1680,-110,7986,114,84,612,-53,55,129
22.516000000000076,1394,-200,7740,28,177,432,-59,46,135
22.53800000000001,1110,-242,7404,-147,124,465,-62,55,133
22.550000000000182,1378,70,8456,-206,-359,571,-58,48,133
22.572000000000116,2306,176,9232,-102,-129,486,-62,60,124
22.58400000000006,2124,64,8104,119,107,351,-60,53,131
22.605999999999995,1244,-288,7338,-86,63,225,-64,49,135
22.618000000000166,1160,-180,7550,-284,-138,269,-66,44,139
22.6400000000001,1660,228,8044,-417,-513,223,-62,48,136
22.662000000000035,1422,250,8336,-369,-835,142,-76,46,127
22.674000000000206,1762,168,8908,-273,-1000,189,-75,48,126
22.69600000000014,1862,58,8316,-188,-915,22,-72,45,131
22.708000000000084,1730,-202,8242,-203,-1023,-41,-79,50,133
22.730000000000018,2276,-274,7732,-267,-866,-77,-83,51,127
22.74200000000019,2206,-192,7994,-307,-957,-147,-94,37,121
22.764000000000124,1748,-478,7394,-223,-1304,-44,-96,37,121
22.776000000000067,2836,-448,7434,-257,-1465,152,-85,34,125
22.798000000000002,3696,-492,6480,-384,-2113,45,-95,34,120
22.820000000000164,4162,-540,6704,-663,-3406,-38,-106,40,117
22.832000000000107,4602,-582,6230,-933,-4225,-135,-115,34,113
22.854000000000042,4978,-986,6738,-1180,-5111,-244,-121,27,95
22.865999999999985,6496,-516,6914,-1016,-6221,-551,-131,29,103
22.888000000000147,5868,-1180,7488,-852,-4542,-626,-162,27,66
22.90000000000009,4980,-1822,3898,-740,-4757,-486,-165,34,63
22.922000000000025,5652,-1514,4234,-981,-5449,25,-181,27,43
22.944000000000187,6388,-1066,5424,-757,-5427,435,-168,31,34
22.95600000000013,7894,-1232,3824,-179,-5130,628,-188,25,-2
22.978000000000065,8598,-1164,1826,-315,-5245,453,-198,22,-11
22.99000000000001,8478,-1322,1750,-613,-5352,318,-199,29,-25
23.01200000000017,8008,-2070,696,-519,-5264,189,-196,12,-45
23.02428500000019,6280,-2156,678,-601,-5795,516,-198,10,-88
23.04600000000005,7604,-1404,1754,-57,-6225,1086,-203,12,-88
23.067999999999984,9754,-1374,-1570,488,-5309,891,-196,12,-117
23.080000000000155,8362,-1760,-2526,373,-4843,485,-182,11,-139
23.10200000000009,7454,-1836,-3248,584,-6408,546,-171,5,-167
23.114000000000033,7770,-1874,-4738,976,-6909,486,-159,5,-188
23.136000000000195,6026,-2278,-5584,624,-6439,425,-147,-2,-205
23.14800000000014,4718,-2460,-6090,629,-6390,484,-136,-6,-225
23.170000000000073,5008,-2160,-6092,524,-5225,627,-106,-15,-248
23.182000000000016,4642,-2166,-5936,335,-3567,374,-93,-11,-264
23.20400000000018,5322,-2480,-7370,385,-3619,126,-70,-12,-270
23.226000000000113,4154,-2720,-7388,298,-3394,-131,-77,-12,-274
23.238000000000056,2040,-2960,-6990,190,-3311,-74,-37,-21,-278
23.25999999999999,1328,-2728,-7578,267,-3205,75,-29,-20,-272
23.272000000000162,1308,-2898,-8062,50,-2663,300,-20,-29,-285
23.294000000000096,2926,-2374,-7668,-124,-2327,275,-10,-18,-285
23.30600000000004,2722,-2528,-7682,-483,-2082,59,14,-20,-284
23.328000000000202,1006,-2974,-6462,-264,-2480,-146,1,-13,-292
23.350000000000136,142,-2840,-5980,123,-2716,-13,20,-13,-278
23.36200000000008,-496,-2790,-7850,264,-2506,196,27,-11,-295
23.384000000000015,-162,-2538,-8758,-159,-1638,247,47,-16,-280
23.396000000000186,690,-2568,-8528,45,-2182,210,49,-16,-280
23.41800000000012,886,-2674,-7522,-220,-1844,-27,54,-21,-276
23.430000000000064,-330,-2790,-6604,-69,-2375,-212,66,-21,-292
23.451999999999998,-1992,-2814,-6318,295,-2455,-178,67,-22,-277
23.47400000000016,-2554,-2792,-8532,421,-2899,76,89,-17,-282
23.486000000000104,-2470,-2890,-7636,4,-2269,136,96,-25,-282
23.508000000000038,-1374,-2630,-6986,135,-2038,150,106,-25,-282
23.519999999999982,-1670,-2744,-7298,69,-1549,-109,121,-27,-255
23.542000000000144,-2400,-2688,-6356,172,-1529,-276,122,-18,-264
23.554000000000087,-3996,-3060,-6564,233,-1693,-264,123,-32,-255
23.576000000000022,-4400,-3068,-7502,539,-1986,121,127,-21,-261
23.588000000000193,-3288,-2836,-7190,134,-1771,95,144,-18,-240
23.610000000000127,-2722,-2616,-5940,94,-1629,26,141,-13,-247
23.632000000000062,-3290,-2836,-5916,-157,-145,-311,140,-25,-246
23.644000000000005,-4180,-2892,-5238,194,-319,-218,135,-20,-243
23.666000000000167,-3708,-2854,-7232,293,-350,-151,148,-21,-245
23.67800000000011,-4114,-3002,-7378,231,-672,-313,156,-24,-240
23.700000000000045,-4526,-3238,-6676,-73,-49,-155,156,-31,-249
23.71199999999999,-3896,-3104,-7240,-194,625,-93,161,-24,-237
23.73400000000015,-3376,-2888,-5344,-337,1334,-179,152,-27,-248
23.756000000000085,-3182,-2872,-6706,-301,2666,-367,148,-21,-233
23.76800000000003,-2606,-2788,-5760,-163,2481,-527,133,-22,-253
23.79000000000019,-3802,-3432,-8576,-23,1942,-275,131,-26,-247
23.802000000000135,-2922,-3210,-7730,-395,2449,-231,125,-37,-260
23.82400000000007,-2714,-3088,-6866,-491,3034,-36,119,-26,-266
23.836000000000013,688,-2162,-7172,-868,6472,-596,108,-30,-265
23.858000000000175,258,-3006,-8178,-1393,8894,-931,95,-26,-276
23.88000000000011,222,-2772,-5640,-1111,7490,-859,44,-13,-292
23.892000000000053,1528,-2792,-8824,-854,5702,-315,19,-10,-284
23.913999999999987,2676,-2210,-7552,-386,4003,-206,-3,-8,-285
23.92600000000016,4254,-1928,-7796,-526,4034,-408,-16,-17,-272
23.948000000000093,5144,-1716,-6900,-1041,5616,-779,-44,-13,-271
23.960000000000036,3002,-2526,-4384,-862,6666,-997,-59,-8,-264
23.9820000000002,5006,-2102,-5260,-809,7728,-707,-70,-2,-255
24.004000000000133,7702,-1806,-6634,-1342,8816,-656,-89,7,-246
24.016000000000076,7896,-1332,-5154,-877,6056,-651,-128,12,-212
24.03800000000001,8310,-1206,-3758,-937,4688,-597,-155,7,-205
24.050000000000182,7172,-1350,-1892,-715,3969,-537,-161,21,-175
24.072000000000116,8306,-928,-1814,-415,4303,-502,-168,24,-170
24.08400000000006,6684,-1302,-1578,-607,4308,-558,-173,16,-142
24.105999999999995,8026,-498,664,-463,5900,-386,-179,27,-141
24.118285000000014,9068,-496,712,-187,6386,-297,-187,41,-115
24.1400000000001,8420,-870,180,-453,6191,-459,-181,30,-93
24.162000000000035,8640,-488,2840,-334,5028,-382,-190,31,-56
24.174000000000206,6952,-1094,2098,-100,3949,-330,-190,31,-39
24.19600000000014,7056,-656,3404,-146,4142,-90,-190,31,-25
24.208000000000084,6090,-1094,3140,-139,3909,138,-192,31,-8
24.230000000000018,7230,-400,4938,-233,3551,148,-185,44,13
24.24200000000019,8012,-190,6380,50,4968,59,-175,39,29
24.264000000000124,6594,-866,4862,161,4571,-15,-167,37,40
24.276000000000067,4944,-1392,3404,-171,3804,-37,-156,36,51
24.298000000000002,4846,-750,6490,-375,2605,234,-147,30,69
24.320000000000164,5560,-408,8194,-145,2763,136,-144,36,77
24.332000000000107,5124,-616,7772,-30,3936,-50,-134,34,80
24.354000000000042,4164,-1128,6254,-34,4926,-77,-129,31,106
24.365999999999985,4274,-686,6860,-349,4599,-81,-94,27,112
24.388000000000147,1972,-1028,6812,-469,3861,98,-94,35,112
24.404998000000205,1780,-850,8936,-459,4341,201,-92,35,141
24.417000000000144,2234,-740,9110,-299,3646,275,-75,32,136
24.439000000000078,1442,-930,9186,-161,4896,3,-49,21,154
24.461000000000013,406,-1018,9114,-371,6217,-77,-38,22,148
24.473000000000184,-704,-1126,7774,-492,8418,82,-29,22,155
24.49500000000012,-1760,-1276,6046,-590,7212,-1,2,25,164
24.507000000000062,-2506,-1102,7110,-480,4645,-61,54,21,154
24.528999999999996,-3602,-990,7552,-225,2263,42,60,20,162
24.541000000000167,-2576,-1416,7492,-151,960,141,71,18,158
24.563000000000102,-2710,-1626,6124,-39,-562,-306,78,18,156
24.585000000000036,-4638,-1552,7830,-276,-1043,-371,75,22,157
24.597000000000207,-4006,-1324,8598,-36,-363,-91,76,13,154
24.619000000000142,-3610,-1380,7866,19,-95,23,64,13,147
24.631000000000085,-4320,-1532,8056,27,74,21,66,21,158
24.65300000000002,-3136,-1396,6998,144,-92,141,70,12,145
24.66500000000019,-3190,-1532,6726,26,-519,72,70,20,143
24.687000000000126,-4146,-1410,7778,-70,-22,-16,69,21,161
24.70900000000006,-3114,-1370,6904,41,133,167,65,22,150
24.721000000000004,-3256,-1394,7456,-156,-263,117,66,18,147
24.743000000000166,-3122,-1420,7856,-67,-273,125,67,22,148
24.75500000000011,-3506,-1480,7790,20,17,75,69,26,163
24.777000000000044,-3748,-1360,6366,13,-173,138,61,18,151
24.788999999999987,-4476,-1374,7448,-180,-373,310,67,22,162
24.81100000000015,-4136,-1310,7540,-111,-293,555,67,20,157
24.823000000000093,-3872,-1356,8264,-141,137,768,62,10,157
24.845000000000027,-2420,-1274,8312,11,428,797,55,17,162
24.86700000000019,-2410,-1490,7258,-30,412,682,58,15,162
24.879000000000133,-2856,-1410,7090,-181,61,609,53,22,164
24.901000000000067,-4158,-1454,6836,-240,-357,655,55,30,162
24.91300000000001,-4072,-1356,7464,-390,-868,902,62,27,164
24.935000000000173,-4986,-1522,7286,-506,-1075,1216,43,25,157
24.947000000000116,-4514,-1414,8894,-594,-935,1714,47,24,163
24.96900000000005,-4114,-1520,8912,-535,-749,2110,48,7,167
24.990999999999985,-2338,-1252,9828,-413,37,2335,32,18,170
25.003000000000156,-3046,-1342,7386,-269,314,2230,25,8,168
25.02500000000009,-3242,-1392,6710,-717,66,2512,29,12,164
25.037000000000035,-3950,-1578,5510,-1031,-326,2709,36,12,169
25.059000000000196,-4056,-1474,7122,-1539,-661,2956,19,20,174
25.07100000000014,-2692,-1482,9668,-1380,-590,3088,9,7,181
25.093000000000075,-2812,-1608,9256,-986,-444,3111,-3,-6,175
25.11500000000001,-2990,-1502,7320,-935,-567,3077,4,-10,176
25.12700000000018,-3306,-2688,2932,-1213,1049,2983,-3,-11,175
25.149000000000115,-1904,-1130,8566,-1117,-605,2854,1,-21,178
25.161000000000058,-5646,-1970,4542,-1264,205,2596,-8,-34,178
25.182999999999993,-3652,-1372,11086,-1263,-104,3207,-12,-32,181
25.195000000000164,-3200,-2194,6026,-609,1283,2879,-27,-34,182
25.2170000000001,-3072,-1670,7118,-978,-799,2867,-16,-50,181
25.229000000000042,-2704,-98,9534,-844,-1272,2633,-27,-51,190
25.251000000000204,-1272,-1136,9320,-1188,-2010,2724,-25,-59,182
25.27300000000014,-1634,212,9948,-868,-890,2500,-37,-62,178
25.285000000000082,-630,-722,11016,-825,-911,2517,-31,-70,181
25.307000000000016,-2672,-992,7260,-156,-282,2166,-30,-79,173
25.319000000000187,-2786,-2034,968,-780,179,2575,-36,-81,167
25.341000000000122,-2492,-446,7244,-384,168,2201,-29,-73,181
25.363000000000056,-2874,-92,6490,-972,-187,2515,-24,-91,174
25.375,-4078,-1902,1506,-947,2810,2342,-24,-86,181
25.397000000000162,-2992,-134,8516,-882,889,2410,-16,-91,179
25.409000000000106,-3176,-316,9856,-941,-377,2547,-23,-102,178
25.43100000000004,-5000,744,14050,-456,802,2437,-23,-115,178
25.442999999999984,-2216,-226,8788,-447,537,2870,-7,-121,172
25.465000000000146,-4132,-1042,6388,-483,1491,2674,-9,-111,176
25.47700000000009,-1452,-538,8378,-1296,457,2844,0,-124,188
25.499000000000024,-3460,-672,10596,-720,764,2103,23,-127,190
25.511000000000195,-5794,-724,8364,-310,57,2346,15,-122,180
25.53300000000013,-5532,30,7626,-83,-42,2501,27,-132,178
25.555000000000064,-5080,-98,6380,-111,65,2925,35,-132,182
25.567000000000007,-3678,2228,12938,-328,780,2735,27,-132,166
25.58900000000017,-3444,374,8892,-934,476,2756,36,-131,179
25.601000000000113,-6660,616,7556,-744,234,2406,46,-134,164
25.623000000000047,-6384,348,9480,-608,-300,3172,54,-127,175
25.63499999999999,-6304,-776,1398,35,889,3284,54,-132,170
25.657000000000153,-2072,636,6972,-542,-236,3375,55,-131,172
25.679000000000087,-1728,1370,8330,-293,-850,2786,59,-120,170
25.69100000000003,-5034,1038,5700,-188,-446,2604,47,-132,166
25.713000000000193,-3658,1690,7224,-417,-442,2775,48,-126,167
25.725000000000136,-3120,1568,7186,-205,-683,2745,52,-130,166
25.74700000000007,-2228,1526,7174,-311,-473,2574,56,-125,173
25.759000000000015,-2136,2142,5462,-368,-345,2198,64,-117,161
25.781000000000176,-2662,2272,6972,-637,-457,2140,60,-121,169
25.80300000000011,-3604,2398,7610,-642,-641,1983,56,-125,166
25.815000000000055,-2964,1872,8512,-488,-920,2223,58,-129,162
25.83699999999999,-1642,1902,6698,-312,-997,2008,59,-127,170
25.84900000000016,-846,2060,6496,-409,-940,1728,58,-124,174
25.871000000000095,-1160,2342,7166,-703,-952,1690,54,-120,173
25.883000000000038,-3342,2262,8534,-573,-771,1381,42,-117,173
25.9050000000002,-1310,2052,8192,-218,-906,1830,42,-115,158
25.917000000000144,-1272,1830,7516,-232,-732,1629,49,-125,166
25.939000000000078,844,2254,7344,-142,-863,1510,42,-122,175
25.961000000000013,-900,1762,7788,-338,-1085,1345,47,-122,163
25.973000000000184,170,2122,8254,-167,-894,1174,38,-129,164
25.99500000000012,-754,2012,8094,-172,-579,1072,48,-121,164
26.007000000000062,-62,2006,7812,-104,-552,1090,29,-126,169
26.028999999999996,-240,1898,7572,-90,-503,1121,35,-125,175
26.041000000000167,212,1994,7926,-172,-639,1059,39,-130,168
26.063000000000102,1674,2302,7958,-124,-618,900,33,-121,172
26.085000000000036,494,1976,8488,-211,-706,842,29,-118,172
26.097000000000207,1062,1708,8438,-38,-173,776,30,-127,173
26.119000000000142,2134,1956,6810,-161,-111,585,23,-130,180
26.131000000000085,338,1746,8080,-389,-397,467,23,-127,173
26.15300000000002,1660,2066,8654,-175,-331,472,25,-132,168
26.16500000000019,1042,1676,7640,-251,-190,435,35,-132,168
26.187000000000126,1448,1994,7936,-327,67,220,25,-127,178
26.20900000000006,-506,1964,9008,-377,83,398,19,-136,162
26.221000000000004,-262,2030,8668,-188,20,542,29,-136,160
26.243000000000166,1306,2028,8376,-93,-218,767,30,-127,166
26.25500000000011,1076,1632,8302,-105,-109,677,32,-125,163
26.277000000000044,1574,1568,7972,-179,-270,630,29,-129,164
26.288999999999987,1758,1730,8122,-177,-209,440,30,-145,161
26.31100000000015,1134,1554,7562,-214,-243,427,27,-137,166
26.323000000000093,1718,1578,8376,-193,-310,460,30,-130,166
26.345000000000027,2070,1206,8172,-67,-168,403,18,-137,173
26.36700000000019,2128,1090,7028,-245,-272,193,25,-132,170
26.379000000000133,2550,1236,7744,-314,-103,-39,26,-136,172
26.40599800000018,1506,1184,7762,-325,169,-120,27,-127,161
26.41800000000012,1646,1304,8258,-425,231,-200,30,-140,163
26.430000000000064,1016,1336,9190,-298,447,-235,29,-139,169
26.451999999999998,486,1406,8442,-169,535,-193,35,-140,166
26.46400000000017,1018,1452,8894,-93,445,-48,29,-144,169
26.486000000000104,824,1186,7886,-123,276,-55,27,-137,161
26.508000000000038,662,1446,8358,-232,259,-176,31,-141,162
26.519999999999982,434,1442,9236,-55,232,-30,33,-144,153
26.542000000000144,520,1340,8798,12,451,-35,27,-135,168
26.554000000000087,690,1204,7568,65,252,24,37,-148,168
26.576000000000022,924,1244,8412,-62,359,3,31,-149,160
26.588000000000193,1110,1268,7978,-51,222,-21,38,-146,160
26.610000000000127,578,1284,7996,-68,419,-125,38,-144,160
26.632000000000062,258,1288,8224,-112,356,-14,27,-143,163
26.644000000000005,420,1266,8726,-11,388,-32,38,-146,162
26.666000000000167,468,1266,7578,-19,257,-17,39,-153,168
26.67800000000011,456,1214,8972,-40,428,-33,41,-141,157
26.700000000000045,546,1234,7838,75,524,-84,46,-139,164
26.71199999999999,338,1208,8692,-7,688,-87,47,-148,151
26.73400000000015,106,1280,8154,92,741,-176,49,-148,163
26.756000000000085,-356,1304,9296,62,1086,-169,59,-145,154
26.76800000000003,-408,1220,7884,237,969,-113,62,-146,153
26.79000000000019,1452,1574,7336,-98,684,-43,52,-143,156
26.802000000000135,-2248,970,8400,77,762,-217,73,-140,154
26.82400000000007,118,1792,9216,161,1333,-117,56,-143,154
26.836000000000013,-2014,1264,9102,325,2489,-205,71,-145,154
26.858000000000175,-1376,1572,8128,393,2432,-58,77,-141,148
26.87000000000012,-2020,1568,9326,467,3771,-84,85,-140,139
26.892000000000053,-2056,1810,9204,728,5053,-180,96,-131,138
26.913999999999987,-2378,1790,4378,792,5194,-223,121,-129,136
26.92600000000016,-2830,1608,5526,241,3550,-47,135,-136,126
26.948000000000093,-4192,1656,6814,139,3292,-145,141,-125,115
26.960000000000036,-4134,1844,8916,223,4062,-115,152,-131,109
26.9820000000002,-4676,1748,7812,529,5331,-158,171,-134,109
27.004000000000133,-5182,2048,8400,765,7559,-330,185,-127,77
27.016000000000076,-6012,1738,8134,1290,11077,-241,198,-131,69
27.03800000000001,-4420,1086,-758,1546,11560,238,211,-132,44
27.050000000000182,-5992,1506,480,965,8115,-327,238,-120,-51
27.072000000000116,-7798,1680,-1090,701,4404,-100,234,-126,-66
27.08400000000006,-9140,1790,4008,882,4715,167,231,-127,-87
27.105999999999995,-6646,2710,-1872,1048,5550,698,236,-122,-92
27.118000000000166,-7200,2326,-4042,213,9610,291,222,-134,-138
27.1400000000001,-5862,2476,-2070,747,10584,777,209,-120,-166
27.162000000000035,-6320,1292,-2942,716,15253,1214,184,-121,-193
27.174000000000206,1734,2272,-9090,577,12687,1658,165,-120,-225
27.19600000000014,152,2616,-9246,732,4724,156,90,-120,-271
27.208000000000084,-1848,2102,-7602,138,5340,346,79,-131,-272
27.230000000000018,32,2450,-6440,61,6628,177,62,-126,-291
27.24200000000019,610,2290,-8766,38,6600,-53,31,-131,-286
27.264000000000124,1114,2052,-8248,-221,6322,-19,-8,-120,-280
27.276000000000067,1972,2342,-9362,-135,6306,-32,-29,-131,-277
27.298000000000002,2758,2470,-8246,-193,3702,20,-47,-132,-276
27.320000000000164,3440,2496,-6398,49,2349,-96,-52,-135,-271
27.332000000000107,2930,2220,-8212,-8,2576,-167,-87,-129,-270
27.354000000000042,3040,2086,-5818,-50,2741,-124,-89,-139,-267
27.365999999999985,3456,2174,-6810,85,3603,-82,-96,-131,-260
27.388000000000147,4290,2272,-6384,-130,3574,-16,-100,-120,-252
27.410000000000082,4844,2476,-5592,21,3371,57,-123,-124,-236
27.422000000000025,5454,2458,-6780,14,3011,-51,-138,-136,-229
27.444000000000187,5918,2526,-5746,126,1935,-189,-147,-129,-224
27.45600000000013,5642,2380,-5736,3,1323,-247,-150,-136,-224
27.478000000000065,5434,2298,-4642,38,1446,-202,-157,-126,-222
27.49000000000001,5972,2480,-4936,128,1538,-159,-155,-124,-212
27.51200000000017,6090,2344,-5174,178,1194,-172,-159,-131,-198
27.524000000000115,6220,2340,-4954,128,1292,-141,-164,-121,-200
27.54600000000005,6250,2368,-4486,165,1167,-67,-164,-116,-186
27.557999999999993,6750,2422,-4778,267,1091,-223,-176,-129,-188
27.580000000000155,6096,2232,-5128,118,774,-254,-169,-139,-176
27.60200000000009,6626,2454,-4658,115,411,-226,-176,-116,-186
27.614000000000033,6256,2382,-4592,62,545,-231,-174,-136,-184
27.636000000000195,6464,2474,-4258,70,170,-161,-187,-130,-175
27.64800000000014,5926,2254,-4354,100,-217,-136,-186,-124,-169
27.670000000000073,6370,2456,-4538,40,-360,-70,-180,-115,-175
27.682000000000016,6362,2392,-4392,60,-154,-75,-181,-124,-179
27.70400000000018,6288,2394,-4076,59,-356,-134,-174,-121,-174
27.726000000000113,6658,2642,-4044,104,-500,-107,-182,-120,-182
27.738000000000056,6592,2584,-5070,187,-704,-234,-179,-126,-181
27.75999999999999,6356,2516,-3994,161,-924,-305,-176,-121,-181
27.772000000000162,5742,2398,-4474,304,-1161,-253,-184,-126,-188
27.794000000000096,5180,2234,-4456,255,-1046,-152,-171,-116,-188
27.80600000000004,6452,2638,-5320,292,-826,-146,-169,-116,-198
27.828000000000202,5518,2278,-4852,247,-983,-264,-162,-126,-191
27.850000000000136,5770,2378,-6008,257,-650,-247,-169,-111,-191
27.86200000000008,5618,2386,-5116,180,-734,-311,-168,-122,-194
27.884000000000015,5428,2302,-4942,408,-1018,-368,-163,-120,-199
27.896000000000186,4940,2176,-6552,308,-776,-231,-156,-125,-209
27.91800000000012,4640,2042,-5892,136,-589,-207,-163,-127,-206
27.930000000000064,5058,2394,-6004,1,-257,-41,-159,-113,-205
27.951999999999998,4960,2398,-5246,129,-357,-101,-146,-127,-202
27.97400000000016,5232,2484,-6328,24,-304,-72,-152,-124,-217
27.986000000000104,4984,2490,-5310,98,-574,-163,-159,-126,-210
28.008000000000038,4848,2392,-6184,125,-348,-54,-156,-130,-211
28.019999999999982,5068,2532,-5798,-54,-186,-58,-144,-127,-209
28.042000000000144,4868,2434,-5862,36,-235,-12,-148,-122,-213
28.054000000000087,5098,2590,-6296,24,-304,-16,-161,-130,-213
28.076000000000022,5054,2496,-5756,-14,-499,-56,-153,-117,-223
28.088000000000193,4996,2570,-5934,96,-554,-92,-147,-126,-215
28.110000000000127,4992,2642,-6226,104,-695,-98,-146,-122,-213
28.132000000000062,5074,2694,-6318,129,-1114,-139,-146,-122,-216
28.144000000000005,4652,2604,-6516,10,-1384,-164,-148,-125,-211
28.166000000000167,3840,2450,-5892,138,-1915,-120,-146,-120,-221
28.17800000000011,3818,2498,-6402,226,-2533,78,-134,-125,-235
28.200000000000045,3318,2232,-6754,354,-2956,97,-118,-126,-241
28.21199999999999,3328,2252,-6804,280,-3653,147,-122,-127,-252
28.23400000000015,3094,2154,-7254,382,-3657,40,-107,-120,-252
28.256000000000085,2106,2004,-7888,270,-3399,52,-89,-126,-255
28.26800000000003,1980,2186,-7716,165,-3163,101,-76,-122,-266
28.29000000000019,1176,2134,-7914,348,-3919,12,-71,-127,-276
28.302000000000135,1024,2126,-7360,329,-5956,247,-59,-115,-271
28.32400000000007,-1262,1606,-8820,262,-5942,122,-23,-135,-283
28.336000000000013,-1424,1966,-8556,85,-6757,447,-12,-129,-284
28.358000000000175,-1058,2180,-8418,248,-9500,355,20,-153,-288
28.37000000000012,-2336,1958,-8412,66,-12073,454,46,-139,-284
28.392000000000053,-3330,2222,-4942,-240,-11509,328,108,-146,-260
28.40899800000011,-5524,2110,-3886,-19,-9798,170,144,-140,-233
28.43100000000004,-6732,2104,-3586,-159,-9590,200,176,-139,-217
28.442999999999984,-8028,2344,266,-76,-6521,259,197,-132,-187
28.465000000000146,-6344,2330,-1938,10,-6251,193,217,-126,-143
28.47700000000009,-7410,2508,-2228,-15,-6406,35,230,-136,-114
28.499000000000024,-6898,2310,-1112,-141,-7148,93,221,-143,-103
28.521000000000186,-5844,2140,-446,-217,-11009,135,225,-131,-83
28.53300000000013,-6370,1814,3354,-415,-12407,327,227,-136,-11
28.555000000000064,-4800,2136,7494,-265,-11882,573,211,-132,32
28.567000000000007,-3974,2512,10042,-220,-5177,177,201,-126,64
28.58900000000017,-4820,2072,6530,108,-3894,49,182,-122,89
28.601000000000113,-3946,2388,6500,-66,-5201,263,164,-124,109
28.623000000000047,-3762,2076,5926,119,-3928,-68,146,-125,123
28.644999999999982,-2754,2342,6698,-113,-4844,80,129,-125,132
28.657000000000153,-30,2748,9350,-127,-7674,358,127,-127,132
28.679000000000087,-892,1984,7494,138,-7443,81,73,-120,151
28.69100000000003,1806,2194,7780,353,-9978,138,58,-113,179
28.713000000000193,2008,2738,10534,466,-8930,-87,29,-113,164
28.725000000000136,1720,2264,6986,-95,-5121,-69,1,-107,173
28.74700000000007,4286,2738,8784,-93,-4729,11,-48,-126,174
28.759000000000015,4710,2424,6902,127,-5223,-80,-60,-103,157
28.781000000000176,4732,2120,6008,1,-5467,-96,-83,-115,147
28.80300000000011,6058,2166,5414,-205,-5820,-34,-102,-112,144
28.815000000000055,6510,2256,5480,-198,-6827,-103,-128,-106,114
28.83699999999999,5886,2648,6016,-349,-5732,-184,-135,-121,98
28.84900000000016,5830,2562,4562,-444,-2745,-43,-161,-120,87
28.871000000000095,6016,2488,4104,-358,-1341,14,-156,-117,82
28.883000000000038,6896,2388,3554,-275,-1420,153,-174,-118,71
28.9050000000002,7570,2242,2990,-192,-1736,112,-182,-127,70
28.927000000000135,7772,2050,2060,-355,-2677,144,-182,-117,60
28.939000000000078,7976,1976,1856,-586,-3307,49,-187,-120,51
28.961000000000013,7704,2092,1942,-687,-4014,26,-201,-116,28
28.973000000000184,7730,2208,2258,-635,-3636,53,-194,-127,17
28.99500000000012,7328,1908,782,-482,-4335,127,-211,-132,13
29.007000000000062,7782,1998,348,-411,-4443,284,-201,-126,-7
29.028999999999996,9200,2876,6644,-819,-8578,199,-207,-135,-44
29.041000000000167,6692,1602,-136,-176,-5478,298,-216,-132,-68
29.063000000000102,7922,2460,-1454,-2,-5337,604,-207,-127,-87
29.085000000000036,7692,2226,-2068,-31,-4057,399,-205,-136,-109
29.097000000000207,7832,1996,-3356,143,-2815,256,-208,-136,-136
29.119000000000142,7094,1850,-3522,184,-3222,167,-199,-140,-132
29.131000000000085,6646,1708,-4610,299,-4223,285,-196,-144,-162
29.15300000000002,6450,1844,-4404,526,-5067,413,-191,-139,-157
29.16500000000019,5720,1750,-5056,674,-5210,440,-167,-146,-188
29.187000000000126,5864,1948,-5362,610,-4166,213,-161,-143,-206
29.20900000000006,4878,1598,-6018,762,-4133,-35,-145,-149,-227
29.221000000000004,3836,1330,-6640,824,-3927,62,-133,-156,-229
29.243000000000166,3900,1250,-7520,511,-3200,22,-122,-158,-240
29.25500000000011,3870,1360,-7206,566,-2777,-125,-112,-153,-247
29.277000000000044,3088,928,-7614,537,-3320,-292,-99,-149,-243
29.288999999999987,2788,932,-8030,535,-3434,-235,-88,-168,-256
29.31100000000015,2544,1270,-6856,525,-3658,-304,-66,-155,-256
29.323000000000093,2074,966,-8524,704,-3720,-463,-64,-163,-273
29.345000000000027,-20,502,-8196,649,-3823,-312,-47,-175,-259
29.36700000000019,-376,550,-8032,478,-3166,-265,-46,-167,-267
29.379000000000133,-1110,368,-7672,117,-1500,37,-14,-172,-262
29.401000000000067,-134,716,-8580,130,-873,114,-12,-169,-272
29.41300000000001,1062,868,-7818,43,-775,-171,-14,-164,-270
29.435000000000173,-932,444,-8646,193,-638,-44,-2,-169,-274
29.447000000000116,-646,504,-8094,37,-568,-115,-2,-182,-274
29.46900000000005,-700,508,-9096,31,-653,10,4,-179,-267
29.490999999999985,-930,556,-7972,146,-1070,-134,-12,-184,-270
29.503000000000156,-644,746,-8054,29,-766,-139,1,-165,-283
29.52500000000009,-928,614,-7812,27,-449,-62,10,-173,-271
29.537000000000035,-578,648,-7314,64,-880,-212,1,-175,-271
29.559000000000196,-2238,216,-8664,306,-1204,-206,8,-170,-268
29.57100000000014,-1634,350,-7892,100,-882,-115,16,-167,-279
29.593000000000075,-2026,64,-8354,127,-1114,-105,25,-175,-266
29.605000000000018,-2096,282,-7482,307,-2002,-127,21,-172,-265
29.62700000000018,-1904,454,-7348,227,-1768,-113,26,-187,-260
29.649000000000115,-1978,358,-7798,202,-1234,-133,31,-187,-267
29.661000000000058,-3336,-108,-7802,137,-1356,-264,42,-173,-264
29.682999999999993,-2658,52,-7856,30,-863,-35,46,-187,-267
29.695000000000164,-2932,46,-7526,60,-908,-36,43,-172,-258
29.7170000000001,-3110,98,-7370,310,-1897,-307,48,-189,-260
29.729000000000042,-3856,52,-7462,342,-2391,-206,54,-175,-266
29.751000000000204,-4880,-102,-6942,409,-2496,-105,61,-186,-256
29.77300000000014,-3720,318,-7304,232,-1837,-19,82,-187,-265
29.785000000000082,-4326,212,-7402,49,-1038,31,77,-192,-255
29.807000000000016,-4066,88,-6438,111,-1180,-156,89,-184,-251
29.819000000000187,-4096,-10,-6598,91,-1430,-221,88,-183,-240
29.841000000000122,-5658,-608,-6552,235,-1614,-124,92,-197,-243
29.853000000000065,-4584,-50,-6464,426,-2126,-171,93,-186,-247
29.875,-4736,-86,-6544,335,-2112,-92,118,-189,-239
29.897000000000162,-6064,-412,-5730,203,-2254,-362,119,-198,-225
29.909000000000106,-6642,-444,-5448,100,-1128,-103,113,-197,-231
29.93100000000004,-6752,-734,-5536,-4,-167,160,125,-189,-224
29.942999999999984,-4004,78,-5464,88,-666,-63,136,-206,-230
29.965000000000146,-5454,-136,-6048,157,-708,-98,125,-182,-222
29.97700000000009,-6038,-400,-5736,-53,-800,-235,123,-197,-210
29.999000000000024,-6878,-698,-5098,-21,-660,-108,135,-179,-224
30.011000000000195,-7160,-808,-5458,18,-267,146,123,-202,-210
30.03300000000013,-5500,-190,-5526,25,-426,74,139,-193,-211
30.055000000000064,-5876,-262,-5192,-39,-326,45,123,-202,-219
30.067000000000007,-6432,-334,-5116,30,-189,-8,136,-193,-216
30.08900000000017,-5654,-394,-5846,-123,-83,4,135,-197,-215
30.101000000000113,-7072,-652,-4976,-7,-149,7,146,-188,-211
30.123000000000047,-6628,-422,-5272,-103,221,151,135,-197,-219
30.13499999999999,-6138,-188,-5778,-170,459,240,135,-202,-212
30.157000000000153,-6100,-158,-5554,-312,674,254,142,-187,-217
30.179000000000087,-6066,-44,-5002,-248,814,120,134,-201,-213
30.19100000000003,-6182,-282,-5430,-254,1078,144,136,-180,-221
30.213000000000193,-6824,-124,-6188,-423,1887,343,139,-188,-225
30.225000000000136,-5856,-20,-5576,-650,2544,502,138,-179,-222
30.24700000000007,-4112,340,-6392,-679,3075,395,116,-187,-231
30.259000000000015,-4462,536,-5842,-609,3086,221,112,-193,-240
30.281000000000176,-4178,776,-6452,-736,3915,119,111,-182,-248
30.30300000000011,-4178,666,-7008,-1014,5343,88,78,-170,-268
30.315000000000055,-2880,884,-7104,-1184,6902,59,72,-167,-267
30.33699999999999,-950,1278,-7184,-1476,8287,-188,53,-156,-272
30.34900000000016,-546,870,-7008,-1230,8518,-104,31,-159,-284
30.371000000000095,1520,1556,-7310,-916,7248,-87,-18,-148,-273
30.383000000000038,1136,1026,-8730,-757,6643,-163,-59,-145,-273
30.409998000000087,2684,1066,-8088,-962,6423,-21,-70,-151,-260
30.422000000000025,4292,1942,-6792,-753,5294,-120,-93,-150,-254
30.444000000000187,3740,1678,-6230,-854,5735,-276,-123,-146,-234
30.45600000000013,4304,1804,-6242,-709,5478,-129,-139,-137,-218
30.478000000000065,6204,2320,-5814,-958,6300,-140,-146,-143,-209
30.49000000000001,6556,2104,-4636,-1268,7299,-469,-168,-137,-202
30.51200000000017,6648,2046,-4618,-722,5438,-254,-182,-130,-161
30.524000000000115,6874,2060,-3686,-793,4143,-254,-202,-135,-149
30.54600000000005,7252,2210,-3324,-642,2744,-187,-202,-112,-130
30.557999999999993,7582,2656,-1920,-785,3068,-248,-210,-129,-117
30.580000000000155,8666,3200,-754,-1052,6113,-662,-203,-124,-95
30.60200000000009,7358,2358,-870,-1036,7285,-895,-214,-115,-75
30.614000000000033,8028,2902,486,-943,6210,-775,-216,-117,-56
30.636000000000195,6434,2276,144,-574,4274,-693,-205,-111,-33
30.64800000000014,7772,2860,622,-657,2702,-356,-203,-111,-7
30.670000000000073,7602,3018,2546,-637,2524,-554,-210,-111,11
30.692000000000007,7108,3096,3568,-470,2481,-488,-208,-118,23
30.70400000000018,6702,2858,2772,-340,2633,-565,-203,-108,19
30.726000000000113,6558,3238,3898,-353,1953,-344,-197,-102,46
30.738000000000056,6956,3286,3916,-201,4094,-576,-192,-112,41
30.75999999999999,4844,2436,5532,-347,5307,-573,-191,-106,54
30.772000000000162,7292,3838,6292,-395,4494,-559,-178,-107,68
30.794000000000096,6546,3038,5616,-88,7845,-455,-164,-106,105
30.80600000000004,4780,2744,4430,-84,6010,-548,-136,-120,120
30.828000000000202,3336,3020,5872,-106,3571,-474,-115,-105,127
30.850000000000136,2148,2622,6906,-187,3202,-353,-113,-101,143
30.86200000000008,4414,3426,7874,-114,3199,-172,-85,-105,161
30.884000000000015,2004,4190,11592,-25,4132,-275,-77,-98,162
30.896000000000186,3450,3376,7538,-160,7380,-90,-60,-106,160
30.91800000000012,1470,3008,7560,160,7112,-366,-41,-91,169
30.930000000000064,-40,3018,4770,170,6488,-405,16,-101,174
30.951999999999998,-546,3066,5882,-220,4704,-298,18,-102,182
30.96400000000017,-2196,3176,6846,-174,2474,-403,41,-96,181
30.986000000000104,-3046,3456,8230,-141,2346,-109,52,-92,170
31.008000000000038,-3158,3376,8420,12,3284,42,76,-99,173
31.019999999999982,-3120,3112,7658,95,4908,181,85,-99,163
31.042000000000144,-2488,3122,4850,142,3549,92,92,-98,164
31.054000000000087,-3206,3288,4884,-149,1565,-99,113,-101,141
31.076000000000022,-5088,3036,7104,-198,1408,-62,122,-97,144
31.088000000000193,-3702,3274,6262,52,787,65,138,-98,141
31.110000000000127,-5138,3194,6494,-84,1323,65,135,-96,141
31.132000000000062,-4940,3008,5480,-122,1389,347,135,-88,136
31.144000000000005,-4246,3120,6206,-250,996,301,144,-99,127
31.166000000000167,-3730,3112,4894,-170,473,232,145,-106,131
31.17800000000011,-3786,3036,5688,-375,211,20,145,-106,121
31.200000000000045,-4814,3062,6024,-353,358,-93,146,-89,132
31.21199999999999,-4936,3174,7046,-382,16,21,146,-110,130
31.23400000000015,-5446,3076,5978,-335,-429,127,150,-101,131
31.246000000000095,-4832,3002,7694,-214,-239,277,152,-93,126
31.26800000000003,-4276,2994,5746,-271,-1021,347,151,-97,125
31.29000000000019,-4064,3024,6734,-236,-1295,214,140,-101,131
31.302000000000135,-3418,2884,6298,-227,-1610,208,142,-106,141
31.32400000000007,-4154,2980,7018,-198,-1354,69,140,-101,131
31.336000000000013,-4062,2830,5472,-142,-982,213,125,-98,124
31.358000000000175,-3004,3018,6940,-284,-1403,155,128,-96,138
31.38000000000011,-2774,2832,6802,-152,-1889,28,116,-106,141
31.392000000000053,-3242,2976,8758,-39,-484,-108,122,-110,149
31.413999999999987,-3438,2910,6100,93,-192,-42,111,-98,138
31.42600000000016,-3692,3060,6912,-37,-41,-104,115,-110,156
31.448000000000093,-3826,2944,6972,-11,275,10,118,-113,145
31.460000000000036,-2692,2978,5978,-64,-609,-13,117,-110,144
31.4820000000002,-3132,2898,7196,-140,-1240,-85,108,-106,153
31.494000000000142,-2646,3072,8160,-17,-1722,-203,110,-107,147
31.516000000000076,-2702,2842,8574,200,-1590,-320,102,-105,147
31.53800000000001,-2884,2852,7128,336,-640,-383,99,-106,155
31.550000000000182,-2428,3026,6842,241,-239,-335,94,-106,153
31.572000000000116,-2570,2774,5838,137,36,-339,90,-97,158
31.58400000000006,-1830,3024,7278,-37,-280,-360,90,-99,154
31.605999999999995,-1980,2928,7956,127,-306,-451,96,-113,155
31.618000000000166,-896,2774,8528,233,812,-579,85,-105,166
31.6400000000001,-1468,2598,7916,392,889,-1042,88,-102,158
31.652000000000044,-2298,2704,6796,521,1205,-1120,84,-98,155
31.674000000000206,-3960,2982,4802,216,529,-1152,92,-108,162
31.69600000000014,-4474,3178,6186,-25,585,-783,104,-98,162
31.708000000000084,-3634,3156,6934,-67,90,-651,101,-113,155
31.730000000000018,-4532,3068,7622,73,-464,-683,102,-107,144
31.74200000000019,-3478,2960,7062,70,-948,-507,95,-107,158
31.764000000000124,-2412,2828,8076,103,-1052,-659,99,-98,164
31.776000000000067,-1834,2918,7528,299,-604,-909,88,-107,161
31.798000000000002,-2832,2738,6964,240,-542,-1181,77,-106,148
31.820000000000164,-3134,2796,7114,230,-659,-1185,89,-111,157
31.832000000000107,-3590,2852,7204,195,-281,-1180,88,-120,163
31.854000000000042,-3482,2724,6892,283,24,-1106,72,-113,169
31.865999999999985,-3050,2678,6648,170,-143,-1050,78,-115,156
31.888000000000147,-2690,2614,7332,197,-324,-1156,78,-105,163
31.90000000000009,-3542,2532,7084,262,-370,-1238,66,-97,163
31.922000000000025,-3798,2580,7742,157,-259,-1070,75,-111,160
31.944000000000187,-3116,2506,8144,365,43,-1029,81,-112,151
31.95600000000013,-3546,2468,6326,425,-43,-1088,65,-108,174
31.978000000000065,-3748,2464,7286,273,-235,-984,76,-122,175
31.99000000000001,-3376,2506,6966,373,-442,-904,60,-108,160
32.01200000000017,-3072,2634,6302,352,-547,-1010,61,-115,175
32.024000000000115,-2610,2456,6540,208,-575,-1021,50,-108,169
32.04600000000005,-2088,2482,7052,214,-349,-1252,54,-102,170
32.05799999999999,-3386,2372,6956,222,-356,-1340,56,-117,170
32.080000000000155,-3396,2374,7996,267,-518,-1287,47,-99,170
32.10200000000009,-3984,2274,7824,423,-265,-1281,48,-106,172
32.11400000000003,-3328,2134,6918,421,-256,-1231,39,-105,175
32.136000000000195,-3522,2102,6170,291,-615,-1260,44,-107,168
32.14800000000014,-2896,2146,6988,182,-557,-1187,32,-102,168
32.17000000000007,-2744,2050,7648,177,-519,-1315,33,-103,174
32.182000000000016,-2886,1840,8362,290,-412,-1401,33,-108,176
32.20400000000018,-3336,1670,7980,486,-116,-1528,30,-99,185
32.22600000000011,-3694,1776,7176,486,48,-1530,30,-99,166
32.238000000000056,-3928,1744,6762,477,37,-1540,21,-106,167
32.25999999999999,-4124,1680,6408,364,-335,-1386,30,-87,185
32.27200000000016,-3572,1836,7248,265,-591,-1347,30,-89,175
32.294000000000096,-3702,1670,7848,307,-603,-1349,23,-97,180
32.30600000000004,-3402,1602,7832,372,-431,-1327,18,-94,175
32.3280000000002,-3128,1566,8018,454,-481,-1389,16,-98,181
32.340284999999994,-3082,1476,7734,523,-452,-1485,15,-99,173
32.36200000000008,-3150,1434,7206,557,-369,-1540,6,-99,178
32.384000000000015,-3540,1392,6812,418,-657,-1589,6,-97,173
32.396000000000186,-3794,1432,7538,356,-500,-1533,8,-97,182
32.412998000000016,-3492,1456,7174,426,-504,-1514,7,-86,181
32.43500000000017,-3706,1346,7194,355,-836,-1448,6,-79,185
32.447000000000116,-2974,1300,8302,411,-1173,-1459,0,-93,181
32.46900000000005,-2448,1294,7868,386,-1335,-1462,-3,-89,175
32.490999999999985,-1494,1170,7832,428,-1304,-1710,-13,-82,178
32.503000000000156,-2802,1160,7210,359,-1078,-2011,-21,-83,169
32.52500000000009,-3516,1236,8180,274,-1021,-1995,-12,-78,167
32.537000000000035,-3346,1234,7044,325,-374,-1939,-26,-75,179
32.5590000000002,-2536,1148,6726,133,-1174,-1811,-30,-64,175
32.57100000000014,-1150,1006,8204,-27,-1575,-1916,-31,-58,169
32.593000000000075,-1056,720,8618,26,-1695,-2233,-31,-53,179
32.60500000000002,-2404,462,8238,101,-1175,-2471,-49,-54,173
32.62700000000018,-3334,464,8054,9,-1236,-2210,-61,-54,173
32.649000000000115,-4866,330,8538,-26,-1100,-1890,-58,-55,164
32.66100000000006,-4292,490,8850,97,-861,-1224,-61,-49,170
32.68299999999999,-2734,670,8282,178,-714,-898,-59,-44,163
32.695000000000164,-966,720,7890,150,-601,-833,-69,-39,168
32.7170000000001,36,616,7506,41,-458,-1048,-75,-37,162
32.72900000000004,444,540,7824,-37,-186,-1368,-77,-32,167
32.751000000000204,-194,316,7978,-215,-629,-1591,-71,-44,166
32.77300000000014,-168,392,9048,-150,-705,-1848,-76,-26,163
32.78500000000008,-1256,100,8512,-85,-675,-1922,-75,-27,160
32.807000000000016,-392,182,8952,-81,-476,-1963,-75,-30,160
32.81900000000019,-1032,26,7740,-17,-381,-2154,-66,-31,161
32.84100000000012,-2176,24,7466,-170,-684,-2057,-69,-26,154
32.853000000000065,-2850,-28,8608,-221,-593,-1751,-76,-18,154
32.875,-1508,54,8808,-143,-173,-1433,-75,-12,162
32.88728500000002,-878,-28,7440,-144,-627,-1384,-76,-18,151
32.909000000000106,454,-112,9146,-292,-414,-1439,-79,-10,157
32.93100000000004,346,-304,8434,-40,-420,-1696,-77,-20,164
32.942999999999984,-100,-426,8550,-105,-264,-1886,-75,-12,148
32.965000000000146,-660,-482,7600,-86,-109,-2071,-76,-8,151
32.97700000000009,-1712,-530,7660,-236,-144,-2031,-76,-1,144
32.999000000000024,-2176,-600,8696,-305,-196,-1769,-82,-7,143
33.021000000000186,-1572,-406,8906,-182,-42,-1562,-76,3,156
33.03300000000013,-988,-242,8430,-111,280,-1507,-67,-7,148
33.055000000000064,-1172,-220,8246,-122,42,-1464,-61,13,154
33.06700000000001,-1384,-320,8664,-125,-25,-1302,-71,-1,161
33.08900000000017,-1390,-372,8588,-61,41,-1210,-61,3,158
33.10100000000011,-928,-232,7782,-45,-58,-1094,-56,11,154
33.12300000000005,-1036,-408,8806,-125,145,-1055,-49,1,151
33.13499999999999,-778,-378,7910,-54,307,-1040,-60,5,157
33.15700000000015,-1400,-498,7816,-199,78,-986,-47,16,161
33.17900000000009,-1610,-402,8210,-265,-72,-799,-41,15,148
33.19100000000003,-1098,-514,9108,-264,-226,-638,-56,11,161
33.21300000000019,-518,-522,8944,-69,349,-679,-50,12,160
33.225000000000136,-1110,-626,8386,-53,114,-711,-52,13,149
33.24700000000007,-1252,-596,8068,-75,-87,-588,-48,15,157
33.259000000000015,-2210,-568,8378,-193,-539,-397,-41,15,153
33.281000000000176,-1958,-546,8640,-150,-100,-83,-39,18,161
33.29300000000012,-918,-454,8800,-35,134,-21,-47,18,166
33.315000000000055,-612,-404,7862,0,236,37,-44,11,161
33.33699999999999,-34,-452,7402,-103,-185,-1,-55,12,157
33.34900000000016,-298,-576,7812,-253,-293,-109,-35,21,154
33.371000000000095,-558,-554,8620,-281,-367,-162,-43,17,150
33.38300000000004,-608,-708,8146,-270,-8,-139,-55,12,155
33.4050000000002,-350,-672,7636,-354,-397,-188,-37,11,158
33.417000000000144,-1050,-852,8142,-485,-377,-162,-49,11,151
33.43900000000008,-1064,-840,8088,-508,-405,-47,-48,12,164
33.46100000000001,-970,-900,9238,-605,-169,4,-49,8,149
33.473000000000184,-944,-1078,8628,-490,68,79,-54,6,156
33.49500000000012,-438,-1250,7874,-641,195,77,-47,3,156
33.50700000000006,-848,-1568,6954,-884,-61,20,-43,-5,160
33.528999999999996,-1092,-1704,7434,-1205,25,69,-44,-8,158
33.54100000000017,-1546,-1862,7222,-1390,657,223,-48,-15,157
33.5630000000001,-1098,-2154,6316,-1636,1267,397,-60,0,169
33.585000000000036,-482,-2338,6576,-2124,238,361,-44,-21,168
33.59700000000021,-768,-2580,8206,-2243,-311,224,-52,-26,168
33.61900000000014,-270,-2974,10352,-2126,-762,243,-49,-34,175
33.631000000000085,-358,-3220,10918,-1700,4,123,-50,-43,172
33.65300000000002,-224,-3406,8848,-1282,643,95,-50,-50,176
33.66500000000019,-752,-3520,6488,-1323,889,-64,-47,-62,170
33.687000000000126,-1336,-3550,4862,-1671,610,43,-48,-68,176
33.69900000000007,-1424,-4110,5794,-1953,513,125,-36,-78,172
33.721000000000004,-1002,-4458,6074,-2223,-80,130,-31,-86,172
33.743000000000166,-1324,-4676,8116,-2171,-226,56,-43,-88,169
33.75500000000011,-1130,-4656,9160,-1905,-337,193,-39,-107,161
33.777000000000044,-1064,-4618,7960,-1550,191,44,-42,-112,158
33.78899999999999,-1462,-4534,6770,-1444,462,36,-43,-116,160
33.81100000000015,-1528,-4814,4518,-1511,691,64,-53,-121,167
33.82300000000009,-1914,-5182,5302,-1782,474,67,-29,-131,160
33.84500000000003,-2314,-5478,5810,-1880,223,161,-39,-137,175
33.86700000000019,-1750,-5776,7398,-1776,183,310,-32,-150,156
33.87900000000013,-1314,-5924,6740,-1443,12,263,-33,-151,157
33.90100000000007,-1410,-6458,6152,-1379,-792,431,-33,-167,157
33.91300000000001,-552,-6398,4276,-1160,-693,252,-35,-168,151
33.93500000000017,-678,-6580,4162,-1463,-1532,189,-38,-172,150
33.947000000000116,-924,-6786,5414,-1507,-1619,106,-44,-170,142
33.96900000000005,-1418,-6658,3940,-1419,-2206,61,-52,-193,139
33.990999999999985,-1570,-6996,4110,-1547,-3772,374,-44,-191,137
34.003000000000156,-1360,-7426,2438,-1687,-5508,930,-69,-188,130
34.02500000000009,1122,-7412,5484,-1772,-5608,1195,-79,-194,119
34.037000000000035,780,-7220,6628,-1390,-3716,742,-100,-201,101
34.0590000000002,-1478,-7756,3788,-1158,-2162,883,-105,-224,80
34.07100000000014,-174,-7694,3002,-1168,-2526,1089,-110,-213,80
34.093000000000075,-100,-7818,1968,-1365,-3431,1013,-106,-220,71
34.11500000000001,-324,-8174,2594,-1647,-4730,1207,-117,-226,41
34.12700000000018,1206,-7952,5576,-1460,-4539,1351,-121,-240,45
34.149000000000115,1800,-7800,4730,-793,-2991,1153,-128,-243,16
34.16100000000006,1518,-7986,3044,-501,-2651,1148,-127,-234,10
34.18299999999999,980,-8194,3356,-547,-1246,919,-125,-248,2
34.195000000000164,1122,-8300,4092,-613,-1517,701,-125,-250,-4
34.2170000000001,684,-8180,2870,-254,-1836,591,-122,-256,-13
34.22900000000004,728,-8170,1648,-261,-2200,606,-124,-259,-13
34.251000000000204,1272,-8038,1082,-475,-2897,566,-122,-256,-17
34.27300000000014,1862,-8038,1722,-591,-3108,421,-118,-260,-35
34.28500000000008,2110,-7854,3602,-640,-3246,380,-127,-256,-34
34.307000000000016,1862,-8144,-412,-261,-4110,95,-119,-267,-53
34.31900000000019,-202,-8328,1180,-996,-5028,236,-113,-263,-71
34.34100000000012,3644,-8028,-2922,-692,-6147,403,-110,-264,-87
34.353000000000065,958,-7734,3794,-273,-5639,567,-121,-265,-90
34.375,2846,-8178,1054,-14,-5231,423,-105,-267,-108
34.39700000000016,2784,-8234,1318,-85,-5336,271,-100,-261,-125
34.41399799999999,1760,-8308,884,18,-4865,67,-89,-270,-131
34.42600000000016,-688,-8674,450,-437,-6532,423,-98,-274,-144
34.44800000000009,1896,-7600,2246,189,-6213,718,-82,-263,-143
34.460000000000036,2460,-8108,152,307,-5299,508,-61,-259,-158
34.4820000000002,3456,-8338,-156,65,-4092,300,-42,-264,-168
34.49400000000014,3862,-7662,2034,81,-3133,-232,-37,-264,-173
34.516000000000076,498,-8374,690,132,-2797,-386,-38,-273,-174
34.53800000000001,-664,-8566,856,94,-2780,-122,-30,-269,-175
34.55000000000018,168,-8090,1110,329,-3234,292,-20,-267,-178
34.572000000000116,1252,-8154,-228,386,-2630,379,-3,-267,-180
34.58400000000006,2446,-8444,-1440,233,-2540,419,-9,-283,-186
34.605999999999995,2120,-8588,-410,-208,-2266,189,4,-268,-169
34.618000000000166,1298,-8572,222,-108,-3112,335,13,-274,-173
34.6400000000001,894,-8770,-386,139,-4136,344,3,-282,-173
34.652000000000044,676,-8434,458,469,-6320,656,21,-268,-179
34.674000000000206,1764,-7930,-302,712,-6636,619,41,-286,-169
34.69600000000014,1948,-7702,-438,694,-4914,519,54,-274,-166
34.708000000000084,2520,-9410,-2028,420,-3817,108,64,-277,-170
